"Subject"	"Session"	"DemoAge.RESP"	"DemoEthnicity.RESP"	"DemoGender.RESP"	"DemoRace.RESP"	"responseMappingVal"	"Block"	"negResponse"	"posResponse"	"Procedure.Block."	"Trial"	"blockName"	"Practice.Trial."	"SubTrial"	"CorrectResponse"	"facePictureFile"	"ITIDuration"	"PrimeType"	"responseAccData"	"rtFeedbackText"	"TargetAP.ACC"	"TargetAP.CRESP"	"TargetAP.RESP"	"TargetAP.RT"	"TargetType"	"targetWord"	"errorQSlide.RESP"	"IMS"	"EMS"
1	1	1	3	2	5	"posRight"	2	"a"	"l"	"APproc"	2	"AP"	"no"	1	"l"	"blackFace2.bmp"	1200	"black"	1	"+"	0	"l"	"a"	274	"positive"	"paradise"	NA	5.6	2.2
1	1	1	3	2	5	"posRight"	2	"a"	"l"	"APproc"	2	"AP"	"no"	2	"a"	"blackFace2.bmp"	1200	"black"	2	"+"	1	"a"	"a"	449	"negative"	"vomit"	NA	5.6	2.2
1	1	1	3	2	5	"posRight"	2	"a"	"l"	"APproc"	2	"AP"	"no"	3	"a"	"blackFace5.bmp"	800	"black"	1	"+"	0	"a"	"l"	377	"negative"	"garbage"	NA	5.6	2.2
1	1	1	3	2	5	"posRight"	2	"a"	"l"	"APproc"	2	"AP"	"no"	4	"a"	"whiteFace3.bmp"	1000	"white"	3	"TOO SLOW"	0	"a"	""	0	"negative"	"garbage"	NA	5.6	2.2
1	1	1	3	2	5	"posRight"	2	"a"	"l"	"APproc"	2	"AP"	"no"	5	"l"	"whiteFace6.bmp"	800	"white"	2	"+"	1	"l"	"l"	287	"positive"	"beauty"	NA	5.6	2.2
1	1	1	3	2	5	"posRight"	2	"a"	"l"	"APproc"	2	"AP"	"no"	6	"a"	"whiteFace6.bmp"	1000	"white"	2	"+"	1	"a"	"a"	294	"negative"	"sewage"	NA	5.6	2.2
1	1	1	3	2	5	"posRight"	2	"a"	"l"	"APproc"	2	"AP"	"no"	7	"l"	"blackFace1.bmp"	1200	"black"	2	"+"	1	"l"	"l"	245	"positive"	"love"	NA	5.6	2.2
1	1	1	3	2	5	"posRight"	2	"a"	"l"	"APproc"	2	"AP"	"no"	8	"l"	"whiteFace7.bmp"	1200	"white"	1	"+"	0	"l"	"a"	316	"positive"	"smile"	NA	5.6	2.2
1	1	1	3	2	5	"posRight"	2	"a"	"l"	"APproc"	2	"AP"	"no"	9	"a"	"blackFace5.bmp"	800	"black"	1	"+"	0	"a"	"l"	276	"negative"	"vomit"	NA	5.6	2.2
1	1	1	3	2	5	"posRight"	2	"a"	"l"	"APproc"	2	"AP"	"no"	10	"l"	"blackFace6.bmp"	1000	"black"	2	"+"	1	"l"	"l"	299	"positive"	"smile"	NA	5.6	2.2
1	1	1	3	2	5	"posRight"	2	"a"	"l"	"APproc"	2	"AP"	"no"	11	"a"	"whiteFace7.bmp"	1200	"white"	2	"+"	1	"a"	"a"	226	"negative"	"garbage"	NA	5.6	2.2
1	1	1	3	2	5	"posRight"	2	"a"	"l"	"APproc"	2	"AP"	"no"	12	"a"	"blackFace8.bmp"	1000	"black"	1	"+"	0	"a"	"l"	242	"negative"	"garbage"	NA	5.6	2.2
1	1	1	3	2	5	"posRight"	2	"a"	"l"	"APproc"	2	"AP"	"no"	13	"l"	"blackFace2.bmp"	800	"black"	1	"+"	0	"l"	"a"	337	"positive"	"beauty"	NA	5.6	2.2
1	1	1	3	2	5	"posRight"	2	"a"	"l"	"APproc"	2	"AP"	"no"	14	"a"	"whiteFace5.bmp"	1200	"white"	1	"+"	0	"a"	"l"	257	"negative"	"vomit"	NA	5.6	2.2
1	1	1	3	2	5	"posRight"	2	"a"	"l"	"APproc"	2	"AP"	"no"	15	"l"	"whiteFace3.bmp"	1000	"white"	2	"+"	1	"l"	"l"	216	"positive"	"smile"	NA	5.6	2.2
1	1	1	3	2	5	"posRight"	2	"a"	"l"	"APproc"	2	"AP"	"no"	16	"l"	"blackFace6.bmp"	800	"black"	1	"+"	0	"l"	"a"	295	"positive"	"love"	NA	5.6	2.2
1	1	1	3	2	5	"posRight"	2	"a"	"l"	"APproc"	2	"AP"	"no"	17	"a"	"blackFace4.bmp"	1000	"black"	3	"TOO SLOW"	0	"a"	""	0	"negative"	"garbage"	NA	5.6	2.2
1	1	1	3	2	5	"posRight"	2	"a"	"l"	"APproc"	2	"AP"	"no"	18	"a"	"blackFace3.bmp"	800	"black"	1	"+"	0	"a"	"l"	222	"negative"	"vomit"	NA	5.6	2.2
1	1	1	3	2	5	"posRight"	2	"a"	"l"	"APproc"	2	"AP"	"no"	19	"l"	"whiteFace4.bmp"	1200	"white"	2	"+"	1	"l"	"l"	277	"positive"	"beauty"	NA	5.6	2.2
1	1	1	3	2	5	"posRight"	2	"a"	"l"	"APproc"	2	"AP"	"no"	20	"a"	"whiteFace2.bmp"	1200	"white"	1	"+"	0	"a"	"l"	253	"negative"	"garbage"	NA	5.6	2.2
1	1	1	3	2	5	"posRight"	2	"a"	"l"	"APproc"	2	"AP"	"no"	21	"a"	"whiteFace2.bmp"	800	"white"	3	"TOO SLOW"	0	"a"	""	0	"negative"	"sewage"	NA	5.6	2.2
1	1	1	3	2	5	"posRight"	2	"a"	"l"	"APproc"	2	"AP"	"no"	22	"a"	"blackFace8.bmp"	1000	"black"	2	"+"	1	"a"	"a"	259	"negative"	"poison"	NA	5.6	2.2
1	1	1	3	2	5	"posRight"	2	"a"	"l"	"APproc"	2	"AP"	"no"	23	"l"	"whiteFace2.bmp"	1200	"white"	2	"+"	1	"l"	"l"	242	"positive"	"love"	NA	5.6	2.2
1	1	1	3	2	5	"posRight"	2	"a"	"l"	"APproc"	2	"AP"	"no"	24	"l"	"blackFace5.bmp"	800	"black"	2	"+"	1	"l"	"l"	354	"positive"	"beauty"	NA	5.6	2.2
1	1	1	3	2	5	"posRight"	2	"a"	"l"	"APproc"	2	"AP"	"no"	25	"a"	"blackFace1.bmp"	1000	"black"	2	"+"	1	"a"	"a"	249	"negative"	"sewage"	NA	5.6	2.2
1	1	1	3	2	5	"posRight"	2	"a"	"l"	"APproc"	2	"AP"	"no"	26	"a"	"whiteFace4.bmp"	1000	"white"	1	"+"	0	"a"	"l"	216	"negative"	"sewage"	NA	5.6	2.2
1	1	1	3	2	5	"posRight"	2	"a"	"l"	"APproc"	2	"AP"	"no"	27	"l"	"whiteFace3.bmp"	800	"white"	2	"+"	1	"l"	"l"	240	"positive"	"paradise"	NA	5.6	2.2
1	1	1	3	2	5	"posRight"	2	"a"	"l"	"APproc"	2	"AP"	"no"	28	"a"	"whiteFace7.bmp"	1200	"white"	2	"+"	1	"a"	"a"	231	"negative"	"sewage"	NA	5.6	2.2
1	1	1	3	2	5	"posRight"	2	"a"	"l"	"APproc"	2	"AP"	"no"	29	"l"	"blackFace2.bmp"	1000	"black"	2	"+"	1	"l"	"l"	318	"positive"	"smile"	NA	5.6	2.2
1	1	1	3	2	5	"posRight"	2	"a"	"l"	"APproc"	2	"AP"	"no"	30	"l"	"whiteFace6.bmp"	1200	"white"	1	"+"	0	"l"	"a"	414	"positive"	"paradise"	NA	5.6	2.2
1	1	1	3	2	5	"posRight"	2	"a"	"l"	"APproc"	2	"AP"	"no"	31	"l"	"whiteFace1.bmp"	800	"white"	2	"+"	1	"l"	"l"	261	"positive"	"smile"	NA	5.6	2.2
1	1	1	3	2	5	"posRight"	2	"a"	"l"	"APproc"	2	"AP"	"no"	32	"l"	"whiteFace2.bmp"	800	"white"	1	"+"	0	"l"	"a"	293	"positive"	"beauty"	NA	5.6	2.2
1	1	1	3	2	5	"posRight"	2	"a"	"l"	"APproc"	2	"AP"	"no"	33	"l"	"whiteFace7.bmp"	1200	"white"	2	"+"	1	"l"	"l"	348	"positive"	"paradise"	NA	5.6	2.2
1	1	1	3	2	5	"posRight"	2	"a"	"l"	"APproc"	2	"AP"	"no"	34	"a"	"whiteFace1.bmp"	1000	"white"	2	"+"	1	"a"	"a"	347	"negative"	"vomit"	NA	5.6	2.2
1	1	1	3	2	5	"posRight"	2	"a"	"l"	"APproc"	2	"AP"	"no"	35	"a"	"blackFace6.bmp"	1000	"black"	1	"+"	0	"a"	"l"	243	"negative"	"sewage"	NA	5.6	2.2
1	1	1	3	2	5	"posRight"	2	"a"	"l"	"APproc"	2	"AP"	"no"	36	"a"	"blackFace8.bmp"	800	"black"	2	"+"	1	"a"	"a"	450	"negative"	"sewage"	NA	5.6	2.2
1	1	1	3	2	5	"posRight"	2	"a"	"l"	"APproc"	2	"AP"	"no"	37	"a"	"blackFace6.bmp"	1200	"black"	1	"+"	0	"a"	"l"	304	"negative"	"vomit"	NA	5.6	2.2
1	1	1	3	2	5	"posRight"	2	"a"	"l"	"APproc"	2	"AP"	"no"	38	"l"	"whiteFace7.bmp"	1200	"white"	2	"+"	1	"l"	"l"	304	"positive"	"love"	NA	5.6	2.2
1	1	1	3	2	5	"posRight"	2	"a"	"l"	"APproc"	2	"AP"	"no"	39	"l"	"blackFace5.bmp"	1000	"black"	2	"+"	1	"l"	"l"	351	"positive"	"smile"	NA	5.6	2.2
1	1	1	3	2	5	"posRight"	2	"a"	"l"	"APproc"	2	"AP"	"no"	40	"l"	"whiteFace8.bmp"	800	"white"	1	"+"	0	"l"	"a"	294	"positive"	"paradise"	NA	5.6	2.2
1	1	1	3	2	5	"posRight"	2	"a"	"l"	"APproc"	2	"AP"	"no"	41	"l"	"whiteFace8.bmp"	1200	"white"	2	"+"	1	"l"	"l"	262	"positive"	"smile"	NA	5.6	2.2
1	1	1	3	2	5	"posRight"	2	"a"	"l"	"APproc"	2	"AP"	"no"	42	"l"	"blackFace4.bmp"	800	"black"	3	"TOO SLOW"	0	"l"	""	0	"positive"	"paradise"	NA	5.6	2.2
1	1	1	3	2	5	"posRight"	2	"a"	"l"	"APproc"	2	"AP"	"no"	43	"a"	"blackFace8.bmp"	1000	"black"	1	"+"	0	"a"	"l"	244	"negative"	"vomit"	NA	5.6	2.2
1	1	1	3	2	5	"posRight"	2	"a"	"l"	"APproc"	2	"AP"	"no"	44	"a"	"whiteFace8.bmp"	1200	"white"	2	"+"	1	"a"	"a"	307	"negative"	"poison"	NA	5.6	2.2
1	1	1	3	2	5	"posRight"	2	"a"	"l"	"APproc"	2	"AP"	"no"	45	"l"	"blackFace8.bmp"	1000	"black"	2	"+"	1	"l"	"l"	251	"positive"	"love"	NA	5.6	2.2
1	1	1	3	2	5	"posRight"	2	"a"	"l"	"APproc"	2	"AP"	"no"	46	"l"	"whiteFace6.bmp"	800	"white"	2	"+"	1	"l"	"l"	474	"positive"	"love"	NA	5.6	2.2
1	1	1	3	2	5	"posRight"	2	"a"	"l"	"APproc"	2	"AP"	"no"	47	"a"	"whiteFace3.bmp"	800	"white"	1	"+"	0	"a"	"l"	393	"negative"	"vomit"	NA	5.6	2.2
1	1	1	3	2	5	"posRight"	2	"a"	"l"	"APproc"	2	"AP"	"no"	48	"a"	"whiteFace2.bmp"	1000	"white"	1	"+"	0	"a"	"l"	353	"negative"	"vomit"	NA	5.6	2.2
1	1	1	3	2	5	"posRight"	2	"a"	"l"	"APproc"	2	"AP"	"no"	49	"a"	"blackFace2.bmp"	1200	"black"	1	"+"	0	"a"	"l"	384	"negative"	"sewage"	NA	5.6	2.2
1	1	1	3	2	5	"posRight"	2	"a"	"l"	"APproc"	2	"AP"	"no"	50	"l"	"blackFace7.bmp"	1000	"black"	2	"+"	1	"l"	"l"	279	"positive"	"paradise"	NA	5.6	2.2
1	1	1	3	2	5	"posRight"	2	"a"	"l"	"APproc"	2	"AP"	"no"	51	"l"	"blackFace8.bmp"	800	"black"	2	"+"	1	"l"	"l"	367	"positive"	"beauty"	NA	5.6	2.2
1	1	1	3	2	5	"posRight"	2	"a"	"l"	"APproc"	2	"AP"	"no"	52	"l"	"blackFace4.bmp"	1200	"black"	2	"+"	1	"l"	"l"	350	"positive"	"beauty"	NA	5.6	2.2
1	1	1	3	2	5	"posRight"	2	"a"	"l"	"APproc"	2	"AP"	"no"	53	"a"	"whiteFace5.bmp"	1000	"white"	1	"+"	0	"a"	"l"	318	"negative"	"garbage"	NA	5.6	2.2
1	1	1	3	2	5	"posRight"	2	"a"	"l"	"APproc"	2	"AP"	"no"	54	"l"	"whiteFace1.bmp"	800	"white"	2	"+"	1	"l"	"l"	317	"positive"	"beauty"	NA	5.6	2.2
1	1	1	3	2	5	"posRight"	2	"a"	"l"	"APproc"	2	"AP"	"no"	55	"l"	"whiteFace8.bmp"	1200	"white"	2	"+"	1	"l"	"l"	396	"positive"	"love"	NA	5.6	2.2
1	1	1	3	2	5	"posRight"	2	"a"	"l"	"APproc"	2	"AP"	"no"	56	"a"	"blackFace1.bmp"	800	"black"	3	"TOO SLOW"	0	"a"	""	0	"negative"	"garbage"	NA	5.6	2.2
1	1	1	3	2	5	"posRight"	2	"a"	"l"	"APproc"	2	"AP"	"no"	57	"a"	"whiteFace8.bmp"	1200	"white"	1	"+"	0	"a"	"l"	499	"negative"	"sewage"	NA	5.6	2.2
1	1	1	3	2	5	"posRight"	2	"a"	"l"	"APproc"	2	"AP"	"no"	58	"a"	"whiteFace8.bmp"	1000	"white"	1	"+"	0	"a"	"l"	386	"negative"	"vomit"	NA	5.6	2.2
1	1	1	3	2	5	"posRight"	2	"a"	"l"	"APproc"	2	"AP"	"no"	59	"a"	"blackFace6.bmp"	1200	"black"	1	"+"	0	"a"	"l"	290	"negative"	"poison"	NA	5.6	2.2
1	1	1	3	2	5	"posRight"	2	"a"	"l"	"APproc"	2	"AP"	"no"	60	"l"	"blackFace3.bmp"	800	"black"	2	"+"	1	"l"	"l"	361	"positive"	"beauty"	NA	5.6	2.2
1	1	1	3	2	5	"posRight"	2	"a"	"l"	"APproc"	2	"AP"	"no"	61	"l"	"blackFace1.bmp"	1000	"black"	1	"+"	0	"l"	"a"	440	"positive"	"beauty"	NA	5.6	2.2
1	1	1	3	2	5	"posRight"	2	"a"	"l"	"APproc"	2	"AP"	"no"	62	"a"	"whiteFace5.bmp"	1200	"white"	1	"+"	0	"a"	"l"	344	"negative"	"sewage"	NA	5.6	2.2
1	1	1	3	2	5	"posRight"	2	"a"	"l"	"APproc"	2	"AP"	"no"	63	"l"	"blackFace3.bmp"	1000	"black"	2	"+"	1	"l"	"l"	255	"positive"	"paradise"	NA	5.6	2.2
1	1	1	3	2	5	"posRight"	2	"a"	"l"	"APproc"	2	"AP"	"no"	64	"a"	"blackFace1.bmp"	800	"black"	1	"+"	0	"a"	"l"	255	"negative"	"vomit"	NA	5.6	2.2
1	1	1	3	2	5	"posRight"	2	"a"	"l"	"APproc"	2	"AP"	"no"	65	"l"	"blackFace3.bmp"	800	"black"	2	"+"	1	"l"	"l"	278	"positive"	"love"	NA	5.6	2.2
1	1	1	3	2	5	"posRight"	2	"a"	"l"	"APproc"	2	"AP"	"no"	66	"l"	"blackFace1.bmp"	1200	"black"	1	"+"	0	"l"	"a"	277	"positive"	"paradise"	NA	5.6	2.2
1	1	1	3	2	5	"posRight"	2	"a"	"l"	"APproc"	2	"AP"	"no"	67	"a"	"blackFace1.bmp"	1000	"black"	1	"+"	0	"a"	"l"	268	"negative"	"poison"	NA	5.6	2.2
1	1	1	3	2	5	"posRight"	2	"a"	"l"	"APproc"	2	"AP"	"no"	68	"a"	"blackFace7.bmp"	1000	"black"	1	"+"	0	"a"	"l"	347	"negative"	"sewage"	NA	5.6	2.2
1	1	1	3	2	5	"posRight"	2	"a"	"l"	"APproc"	2	"AP"	"no"	69	"l"	"whiteFace4.bmp"	1200	"white"	2	"+"	1	"l"	"l"	378	"positive"	"love"	NA	5.6	2.2
1	1	1	3	2	5	"posRight"	2	"a"	"l"	"APproc"	2	"AP"	"no"	70	"l"	"blackFace3.bmp"	800	"black"	2	"+"	1	"l"	"l"	266	"positive"	"smile"	NA	5.6	2.2
1	1	1	3	2	5	"posRight"	2	"a"	"l"	"APproc"	2	"AP"	"no"	71	"a"	"whiteFace3.bmp"	800	"white"	1	"+"	0	"a"	"l"	297	"negative"	"sewage"	NA	5.6	2.2
1	1	1	3	2	5	"posRight"	2	"a"	"l"	"APproc"	2	"AP"	"no"	72	"a"	"blackFace7.bmp"	1200	"black"	1	"+"	0	"a"	"l"	352	"negative"	"poison"	NA	5.6	2.2
1	1	1	3	2	5	"posRight"	2	"a"	"l"	"APproc"	2	"AP"	"no"	73	"a"	"whiteFace6.bmp"	1000	"white"	2	"+"	1	"a"	"a"	432	"negative"	"poison"	NA	5.6	2.2
1	1	1	3	2	5	"posRight"	2	"a"	"l"	"APproc"	2	"AP"	"no"	74	"a"	"blackFace2.bmp"	1000	"black"	1	"+"	0	"a"	"l"	335	"negative"	"poison"	NA	5.6	2.2
1	1	1	3	2	5	"posRight"	2	"a"	"l"	"APproc"	2	"AP"	"no"	75	"a"	"whiteFace2.bmp"	1200	"white"	2	"+"	1	"a"	"a"	271	"negative"	"poison"	NA	5.6	2.2
1	1	1	3	2	5	"posRight"	2	"a"	"l"	"APproc"	2	"AP"	"no"	76	"l"	"whiteFace3.bmp"	800	"white"	2	"+"	1	"l"	"l"	238	"positive"	"love"	NA	5.6	2.2
1	1	1	3	2	5	"posRight"	2	"a"	"l"	"APproc"	2	"AP"	"no"	77	"l"	"whiteFace8.bmp"	800	"white"	2	"+"	1	"l"	"l"	309	"positive"	"beauty"	NA	5.6	2.2
1	1	1	3	2	5	"posRight"	2	"a"	"l"	"APproc"	2	"AP"	"no"	78	"l"	"blackFace5.bmp"	1200	"black"	2	"+"	1	"l"	"l"	397	"positive"	"love"	NA	5.6	2.2
1	1	1	3	2	5	"posRight"	2	"a"	"l"	"APproc"	2	"AP"	"no"	79	"a"	"whiteFace4.bmp"	1000	"white"	1	"+"	0	"a"	"l"	260	"negative"	"poison"	NA	5.6	2.2
1	1	1	3	2	5	"posRight"	2	"a"	"l"	"APproc"	2	"AP"	"no"	80	"a"	"blackFace7.bmp"	800	"black"	1	"+"	0	"a"	"l"	371	"negative"	"vomit"	NA	5.6	2.2
1	1	1	3	2	5	"posRight"	2	"a"	"l"	"APproc"	2	"AP"	"no"	81	"l"	"whiteFace7.bmp"	1000	"white"	2	"+"	1	"l"	"l"	371	"positive"	"beauty"	NA	5.6	2.2
1	1	1	3	2	5	"posRight"	2	"a"	"l"	"APproc"	2	"AP"	"no"	82	"a"	"blackFace6.bmp"	1200	"black"	2	"+"	1	"a"	"a"	338	"negative"	"garbage"	NA	5.6	2.2
1	1	1	3	2	5	"posRight"	2	"a"	"l"	"APproc"	2	"AP"	"no"	83	"l"	"blackFace1.bmp"	800	"black"	2	"+"	1	"l"	"l"	425	"positive"	"smile"	NA	5.6	2.2
1	1	1	3	2	5	"posRight"	2	"a"	"l"	"APproc"	2	"AP"	"no"	84	"a"	"whiteFace1.bmp"	1000	"white"	3	"TOO SLOW"	0	"a"	""	0	"negative"	"poison"	NA	5.6	2.2
1	1	1	3	2	5	"posRight"	2	"a"	"l"	"APproc"	2	"AP"	"no"	85	"a"	"whiteFace6.bmp"	1200	"white"	3	"TOO SLOW"	0	"a"	""	0	"negative"	"vomit"	NA	5.6	2.2
1	1	1	3	2	5	"posRight"	2	"a"	"l"	"APproc"	2	"AP"	"no"	86	"l"	"whiteFace2.bmp"	800	"white"	2	"+"	1	"l"	"l"	287	"positive"	"smile"	NA	5.6	2.2
1	1	1	3	2	5	"posRight"	2	"a"	"l"	"APproc"	2	"AP"	"no"	87	"a"	"whiteFace1.bmp"	1000	"white"	2	"+"	1	"a"	"a"	238	"negative"	"sewage"	NA	5.6	2.2
1	1	1	3	2	5	"posRight"	2	"a"	"l"	"APproc"	2	"AP"	"no"	88	"l"	"whiteFace1.bmp"	1200	"white"	2	"+"	1	"l"	"l"	366	"positive"	"love"	NA	5.6	2.2
1	1	1	3	2	5	"posRight"	2	"a"	"l"	"APproc"	2	"AP"	"no"	89	"a"	"whiteFace1.bmp"	1200	"white"	2	"+"	1	"a"	"a"	269	"negative"	"garbage"	NA	5.6	2.2
1	1	1	3	2	5	"posRight"	2	"a"	"l"	"APproc"	2	"AP"	"no"	90	"l"	"whiteFace1.bmp"	1000	"white"	2	"+"	1	"l"	"l"	252	"positive"	"paradise"	NA	5.6	2.2
1	1	1	3	2	5	"posRight"	2	"a"	"l"	"APproc"	2	"AP"	"no"	91	"l"	"blackFace4.bmp"	800	"black"	2	"+"	1	"l"	"l"	172	"positive"	"smile"	NA	5.6	2.2
1	1	1	3	2	5	"posRight"	2	"a"	"l"	"APproc"	2	"AP"	"no"	92	"a"	"blackFace3.bmp"	1200	"black"	2	"+"	1	"a"	"a"	276	"negative"	"sewage"	NA	5.6	2.2
1	1	1	3	2	5	"posRight"	2	"a"	"l"	"APproc"	2	"AP"	"no"	93	"l"	"blackFace7.bmp"	1000	"black"	2	"+"	1	"l"	"l"	171	"positive"	"beauty"	NA	5.6	2.2
1	1	1	3	2	5	"posRight"	2	"a"	"l"	"APproc"	2	"AP"	"no"	94	"a"	"blackFace2.bmp"	800	"black"	2	"+"	1	"a"	"a"	243	"negative"	"garbage"	NA	5.6	2.2
1	1	1	3	2	5	"posRight"	2	"a"	"l"	"APproc"	2	"AP"	"no"	95	"l"	"blackFace6.bmp"	1200	"black"	2	"+"	1	"l"	"l"	195	"positive"	"beauty"	NA	5.6	2.2
1	1	1	3	2	5	"posRight"	2	"a"	"l"	"APproc"	2	"AP"	"no"	96	"l"	"whiteFace4.bmp"	800	"white"	2	"+"	1	"l"	"l"	210	"positive"	"paradise"	NA	5.6	2.2
1	1	1	3	2	5	"posRight"	2	"a"	"l"	"APproc"	2	"AP"	"no"	97	"a"	"blackFace7.bmp"	1000	"black"	1	"+"	0	"a"	"l"	229	"negative"	"garbage"	NA	5.6	2.2
1	1	1	3	2	5	"posRight"	2	"a"	"l"	"APproc"	2	"AP"	"no"	98	"a"	"blackFace3.bmp"	1000	"black"	1	"+"	0	"a"	"l"	251	"negative"	"garbage"	NA	5.6	2.2
1	1	1	3	2	5	"posRight"	2	"a"	"l"	"APproc"	2	"AP"	"no"	99	"a"	"blackFace5.bmp"	1200	"black"	2	"+"	1	"a"	"a"	194	"negative"	"poison"	NA	5.6	2.2
1	1	1	3	2	5	"posRight"	2	"a"	"l"	"APproc"	2	"AP"	"no"	100	"l"	"blackFace6.bmp"	800	"black"	2	"+"	1	"l"	"l"	202	"positive"	"paradise"	NA	5.6	2.2
1	1	1	3	2	5	"posRight"	2	"a"	"l"	"APproc"	2	"AP"	"no"	101	"a"	"whiteFace4.bmp"	1200	"white"	2	"+"	1	"a"	"a"	249	"negative"	"garbage"	NA	5.6	2.2
1	1	1	3	2	5	"posRight"	2	"a"	"l"	"APproc"	2	"AP"	"no"	102	"l"	"blackFace7.bmp"	800	"black"	2	"+"	1	"l"	"l"	216	"positive"	"smile"	NA	5.6	2.2
1	1	1	3	2	5	"posRight"	2	"a"	"l"	"APproc"	2	"AP"	"no"	103	"l"	"blackFace7.bmp"	1000	"black"	2	"+"	1	"l"	"l"	272	"positive"	"love"	NA	5.6	2.2
1	1	1	3	2	5	"posRight"	2	"a"	"l"	"APproc"	2	"AP"	"no"	104	"l"	"whiteFace5.bmp"	1200	"white"	2	"+"	1	"l"	"l"	223	"positive"	"beauty"	NA	5.6	2.2
1	1	1	3	2	5	"posRight"	2	"a"	"l"	"APproc"	2	"AP"	"no"	105	"l"	"blackFace5.bmp"	1000	"black"	1	"+"	0	"l"	"a"	87	"positive"	"paradise"	NA	5.6	2.2
1	1	1	3	2	5	"posRight"	2	"a"	"l"	"APproc"	2	"AP"	"no"	106	"a"	"whiteFace3.bmp"	800	"white"	1	"+"	0	"a"	"l"	122	"negative"	"poison"	NA	5.6	2.2
1	1	1	3	2	5	"posRight"	2	"a"	"l"	"APproc"	2	"AP"	"no"	107	"l"	"whiteFace5.bmp"	1200	"white"	2	"+"	1	"l"	"l"	172	"positive"	"paradise"	NA	5.6	2.2
1	1	1	3	2	5	"posRight"	2	"a"	"l"	"APproc"	2	"AP"	"no"	108	"a"	"blackFace5.bmp"	1000	"black"	1	"+"	0	"a"	"l"	12	"negative"	"sewage"	NA	5.6	2.2
1	1	1	3	2	5	"posRight"	2	"a"	"l"	"APproc"	2	"AP"	"no"	109	"a"	"whiteFace4.bmp"	800	"white"	1	"+"	0	"a"	"l"	171	"negative"	"vomit"	NA	5.6	2.2
1	1	1	3	2	5	"posRight"	2	"a"	"l"	"APproc"	2	"AP"	"no"	110	"l"	"whiteFace5.bmp"	1200	"white"	2	"+"	1	"l"	"l"	171	"positive"	"love"	NA	5.6	2.2
1	1	1	3	2	5	"posRight"	2	"a"	"l"	"APproc"	2	"AP"	"no"	111	"a"	"blackFace4.bmp"	800	"black"	2	"+"	1	"a"	"a"	275	"negative"	"vomit"	NA	5.6	2.2
1	1	1	3	2	5	"posRight"	2	"a"	"l"	"APproc"	2	"AP"	"no"	112	"l"	"blackFace8.bmp"	1000	"black"	1	"+"	0	"l"	"a"	298	"positive"	"smile"	NA	5.6	2.2
1	1	1	3	2	5	"posRight"	2	"a"	"l"	"APproc"	2	"AP"	"no"	113	"l"	"whiteFace6.bmp"	800	"white"	2	"+"	1	"l"	"l"	369	"positive"	"smile"	NA	5.6	2.2
1	1	1	3	2	5	"posRight"	2	"a"	"l"	"APproc"	2	"AP"	"no"	114	"a"	"blackFace3.bmp"	1000	"black"	1	"+"	0	"a"	"l"	273	"negative"	"poison"	NA	5.6	2.2
1	1	1	3	2	5	"posRight"	2	"a"	"l"	"APproc"	2	"AP"	"no"	115	"l"	"whiteFace4.bmp"	1200	"white"	2	"+"	1	"l"	"l"	232	"positive"	"smile"	NA	5.6	2.2
1	1	1	3	2	5	"posRight"	2	"a"	"l"	"APproc"	2	"AP"	"no"	116	"a"	"whiteFace6.bmp"	1200	"white"	3	"TOO SLOW"	0	"a"	""	0	"negative"	"garbage"	NA	5.6	2.2
1	1	1	3	2	5	"posRight"	2	"a"	"l"	"APproc"	2	"AP"	"no"	117	"l"	"whiteFace2.bmp"	800	"white"	1	"+"	0	"l"	"a"	359	"positive"	"paradise"	NA	5.6	2.2
1	1	1	3	2	5	"posRight"	2	"a"	"l"	"APproc"	2	"AP"	"no"	118	"l"	"blackFace2.bmp"	1000	"black"	2	"+"	1	"l"	"l"	174	"positive"	"love"	NA	5.6	2.2
1	1	1	3	2	5	"posRight"	2	"a"	"l"	"APproc"	2	"AP"	"no"	119	"l"	"whiteFace3.bmp"	800	"white"	2	"+"	1	"l"	"l"	102	"positive"	"beauty"	NA	5.6	2.2
1	1	1	3	2	5	"posRight"	2	"a"	"l"	"APproc"	2	"AP"	"no"	120	"a"	"whiteFace8.bmp"	1200	"white"	1	"+"	0	"a"	"l"	193	"negative"	"garbage"	NA	5.6	2.2
1	1	1	3	2	5	"posRight"	2	"a"	"l"	"APproc"	2	"AP"	"no"	121	"a"	"blackFace4.bmp"	1000	"black"	1	"+"	0	"a"	"l"	168	"negative"	"poison"	NA	5.6	2.2
1	1	1	3	2	5	"posRight"	2	"a"	"l"	"APproc"	2	"AP"	"no"	122	"l"	"blackFace4.bmp"	1000	"black"	2	"+"	1	"l"	"l"	208	"positive"	"love"	NA	5.6	2.2
1	1	1	3	2	5	"posRight"	2	"a"	"l"	"APproc"	2	"AP"	"no"	123	"a"	"whiteFace5.bmp"	800	"white"	1	"+"	0	"a"	"l"	200	"negative"	"poison"	NA	5.6	2.2
1	1	1	3	2	5	"posRight"	2	"a"	"l"	"APproc"	2	"AP"	"no"	124	"a"	"blackFace4.bmp"	1200	"black"	1	"+"	0	"a"	"l"	175	"negative"	"sewage"	NA	5.6	2.2
1	1	1	3	2	5	"posRight"	2	"a"	"l"	"APproc"	2	"AP"	"no"	125	"a"	"whiteFace7.bmp"	1200	"white"	2	"+"	1	"a"	"a"	255	"negative"	"vomit"	NA	5.6	2.2
1	1	1	3	2	5	"posRight"	2	"a"	"l"	"APproc"	2	"AP"	"no"	126	"l"	"blackFace8.bmp"	1000	"black"	2	"+"	1	"l"	"l"	159	"positive"	"paradise"	NA	5.6	2.2
1	1	1	3	2	5	"posRight"	2	"a"	"l"	"APproc"	2	"AP"	"no"	127	"a"	"whiteFace7.bmp"	800	"white"	1	"+"	0	"a"	"l"	231	"negative"	"poison"	NA	5.6	2.2
1	1	1	3	2	5	"posRight"	2	"a"	"l"	"APproc"	2	"AP"	"no"	128	"l"	"whiteFace5.bmp"	800	"white"	1	"+"	0	"l"	"a"	303	"positive"	"smile"	NA	5.6	2.2
1	1	1	3	2	5	"posRight"	2	"a"	"l"	"APproc"	2	"AP"	"no"	129	"a"	"whiteFace4.bmp"	1200	"white"	1	"+"	0	"a"	"l"	141	"negative"	"vomit"	NA	5.6	2.2
1	1	1	3	2	5	"posRight"	2	"a"	"l"	"APproc"	2	"AP"	"no"	130	"a"	"whiteFace2.bmp"	1000	"white"	1	"+"	0	"a"	"l"	223	"negative"	"vomit"	NA	5.6	2.2
1	1	1	3	2	5	"posRight"	2	"a"	"l"	"APproc"	2	"AP"	"no"	131	"l"	"blackFace6.bmp"	800	"black"	2	"+"	1	"l"	"l"	230	"positive"	"beauty"	NA	5.6	2.2
1	1	1	3	2	5	"posRight"	2	"a"	"l"	"APproc"	2	"AP"	"no"	132	"l"	"blackFace1.bmp"	1200	"black"	2	"+"	1	"l"	"l"	229	"positive"	"love"	NA	5.6	2.2
1	1	1	3	2	5	"posRight"	2	"a"	"l"	"APproc"	2	"AP"	"no"	133	"a"	"blackFace3.bmp"	1000	"black"	2	"+"	1	"a"	"a"	212	"negative"	"poison"	NA	5.6	2.2
1	1	1	3	2	5	"posRight"	2	"a"	"l"	"APproc"	2	"AP"	"no"	134	"a"	"blackFace8.bmp"	1000	"black"	1	"+"	0	"a"	"l"	188	"negative"	"poison"	NA	5.6	2.2
1	1	1	3	2	5	"posRight"	2	"a"	"l"	"APproc"	2	"AP"	"no"	135	"a"	"blackFace5.bmp"	800	"black"	1	"+"	0	"a"	"l"	195	"negative"	"garbage"	NA	5.6	2.2
1	1	1	3	2	5	"posRight"	2	"a"	"l"	"APproc"	2	"AP"	"no"	136	"l"	"whiteFace3.bmp"	1200	"white"	2	"+"	1	"l"	"l"	139	"positive"	"smile"	NA	5.6	2.2
1	1	1	3	2	5	"posRight"	2	"a"	"l"	"APproc"	2	"AP"	"no"	137	"a"	"blackFace7.bmp"	1200	"black"	2	"+"	1	"a"	"a"	316	"negative"	"sewage"	NA	5.6	2.2
1	1	1	3	2	5	"posRight"	2	"a"	"l"	"APproc"	2	"AP"	"no"	138	"l"	"whiteFace7.bmp"	1000	"white"	2	"+"	1	"l"	"l"	267	"positive"	"love"	NA	5.6	2.2
1	1	1	3	2	5	"posRight"	2	"a"	"l"	"APproc"	2	"AP"	"no"	139	"l"	"blackFace8.bmp"	800	"black"	2	"+"	1	"l"	"l"	219	"positive"	"love"	NA	5.6	2.2
1	1	1	3	2	5	"posRight"	2	"a"	"l"	"APproc"	2	"AP"	"no"	140	"a"	"whiteFace8.bmp"	800	"white"	1	"+"	0	"a"	"l"	274	"negative"	"poison"	NA	5.6	2.2
1	1	1	3	2	5	"posRight"	2	"a"	"l"	"APproc"	2	"AP"	"no"	141	"a"	"whiteFace7.bmp"	1000	"white"	2	"+"	1	"a"	"a"	265	"negative"	"vomit"	NA	5.6	2.2
1	1	1	3	2	5	"posRight"	2	"a"	"l"	"APproc"	2	"AP"	"no"	142	"a"	"whiteFace3.bmp"	1200	"white"	1	"+"	0	"a"	"l"	65	"negative"	"sewage"	NA	5.6	2.2
1	1	1	3	2	5	"posRight"	2	"a"	"l"	"APproc"	2	"AP"	"no"	143	"l"	"blackFace4.bmp"	800	"black"	2	"+"	1	"l"	"l"	125	"positive"	"paradise"	NA	5.6	2.2
1	1	1	3	2	5	"posRight"	2	"a"	"l"	"APproc"	2	"AP"	"no"	144	"l"	"blackFace5.bmp"	1200	"black"	1	"+"	0	"l"	"a"	383	"positive"	"smile"	NA	5.6	2.2
1	1	1	3	2	5	"posRight"	2	"a"	"l"	"APproc"	2	"AP"	"no"	145	"l"	"whiteFace4.bmp"	1000	"white"	2	"+"	1	"l"	"l"	119	"positive"	"beauty"	NA	5.6	2.2
1	1	1	3	2	5	"posRight"	2	"a"	"l"	"APproc"	2	"AP"	"no"	146	"a"	"whiteFace2.bmp"	1000	"white"	1	"+"	0	"a"	"l"	185	"negative"	"poison"	NA	5.6	2.2
1	1	1	3	2	5	"posRight"	2	"a"	"l"	"APproc"	2	"AP"	"no"	147	"a"	"blackFace7.bmp"	800	"black"	1	"+"	0	"a"	"l"	384	"negative"	"poison"	NA	5.6	2.2
1	1	1	3	2	5	"posRight"	2	"a"	"l"	"APproc"	2	"AP"	"no"	148	"a"	"blackFace8.bmp"	1200	"black"	1	"+"	0	"a"	"l"	160	"negative"	"garbage"	NA	5.6	2.2
1	1	1	3	2	5	"posRight"	2	"a"	"l"	"APproc"	2	"AP"	"no"	149	"l"	"blackFace8.bmp"	1000	"black"	1	"+"	0	"l"	"a"	144	"positive"	"beauty"	NA	5.6	2.2
1	1	1	3	2	5	"posRight"	2	"a"	"l"	"APproc"	2	"AP"	"no"	150	"l"	"whiteFace8.bmp"	1200	"white"	1	"+"	0	"l"	"a"	146	"positive"	"paradise"	NA	5.6	2.2
1	1	1	3	2	5	"posRight"	2	"a"	"l"	"APproc"	2	"AP"	"no"	151	"l"	"blackFace7.bmp"	800	"black"	2	"+"	1	"l"	"l"	75	"positive"	"beauty"	NA	5.6	2.2
1	1	1	3	2	5	"posRight"	2	"a"	"l"	"APproc"	2	"AP"	"no"	152	"l"	"whiteFace5.bmp"	800	"white"	2	"+"	1	"l"	"l"	23	"positive"	"paradise"	NA	5.6	2.2
1	1	1	3	2	5	"posRight"	2	"a"	"l"	"APproc"	2	"AP"	"no"	153	"a"	"blackFace1.bmp"	1200	"black"	1	"+"	0	"a"	"l"	101	"negative"	"sewage"	NA	5.6	2.2
1	1	1	3	2	5	"posRight"	2	"a"	"l"	"APproc"	2	"AP"	"no"	154	"a"	"whiteFace5.bmp"	1000	"white"	1	"+"	0	"a"	"l"	152	"negative"	"sewage"	NA	5.6	2.2
1	1	1	3	2	5	"posRight"	2	"a"	"l"	"APproc"	2	"AP"	"no"	155	"a"	"blackFace8.bmp"	1200	"black"	3	"TOO SLOW"	0	"a"	""	0	"negative"	"vomit"	NA	5.6	2.2
1	1	1	3	2	5	"posRight"	2	"a"	"l"	"APproc"	2	"AP"	"no"	156	"a"	"whiteFace3.bmp"	1000	"white"	2	"+"	1	"a"	"a"	279	"negative"	"vomit"	NA	5.6	2.2
1	1	1	3	2	5	"posRight"	2	"a"	"l"	"APproc"	2	"AP"	"no"	157	"l"	"blackFace2.bmp"	800	"black"	2	"+"	1	"l"	"l"	167	"positive"	"love"	NA	5.6	2.2
1	1	1	3	2	5	"posRight"	2	"a"	"l"	"APproc"	2	"AP"	"no"	158	"a"	"blackFace4.bmp"	1000	"black"	1	"+"	0	"a"	"l"	151	"negative"	"poison"	NA	5.6	2.2
1	1	1	3	2	5	"posRight"	2	"a"	"l"	"APproc"	2	"AP"	"no"	159	"l"	"blackFace2.bmp"	800	"black"	1	"+"	0	"l"	"a"	96	"positive"	"paradise"	NA	5.6	2.2
1	1	1	3	2	5	"posRight"	2	"a"	"l"	"APproc"	2	"AP"	"no"	160	"l"	"whiteFace1.bmp"	1200	"white"	2	"+"	1	"l"	"l"	155	"positive"	"paradise"	NA	5.6	2.2
1	1	1	3	2	5	"posRight"	2	"a"	"l"	"APproc"	2	"AP"	"no"	161	"a"	"blackFace8.bmp"	800	"black"	1	"+"	0	"a"	"l"	12	"negative"	"sewage"	NA	5.6	2.2
1	1	1	3	2	5	"posRight"	2	"a"	"l"	"APproc"	2	"AP"	"no"	162	"l"	"whiteFace7.bmp"	1000	"white"	2	"+"	1	"l"	"l"	155	"positive"	"paradise"	NA	5.6	2.2
1	1	1	3	2	5	"posRight"	2	"a"	"l"	"APproc"	2	"AP"	"no"	163	"l"	"blackFace5.bmp"	1200	"black"	1	"+"	0	"l"	"a"	154	"positive"	"love"	NA	5.6	2.2
1	1	1	3	2	5	"posRight"	2	"a"	"l"	"APproc"	2	"AP"	"no"	164	"a"	"blackFace5.bmp"	1000	"black"	1	"+"	0	"a"	"l"	123	"negative"	"poison"	NA	5.6	2.2
1	1	1	3	2	5	"posRight"	2	"a"	"l"	"APproc"	2	"AP"	"no"	165	"a"	"blackFace2.bmp"	1200	"black"	1	"+"	0	"a"	"l"	189	"negative"	"vomit"	NA	5.6	2.2
1	1	1	3	2	5	"posRight"	2	"a"	"l"	"APproc"	2	"AP"	"no"	166	"l"	"blackFace1.bmp"	800	"black"	2	"+"	1	"l"	"l"	164	"positive"	"smile"	NA	5.6	2.2
1	1	1	3	2	5	"posRight"	2	"a"	"l"	"APproc"	2	"AP"	"no"	167	"a"	"whiteFace1.bmp"	1200	"white"	2	"+"	1	"a"	"a"	149	"negative"	"vomit"	NA	5.6	2.2
1	1	1	3	2	5	"posRight"	2	"a"	"l"	"APproc"	2	"AP"	"no"	168	"a"	"whiteFace1.bmp"	1000	"white"	1	"+"	0	"a"	"l"	127	"negative"	"sewage"	NA	5.6	2.2
1	1	1	3	2	5	"posRight"	2	"a"	"l"	"APproc"	2	"AP"	"no"	169	"l"	"blackFace2.bmp"	800	"black"	2	"+"	1	"l"	"l"	137	"positive"	"beauty"	NA	5.6	2.2
1	1	1	3	2	5	"posRight"	2	"a"	"l"	"APproc"	2	"AP"	"no"	170	"l"	"blackFace4.bmp"	1000	"black"	2	"+"	1	"l"	"l"	122	"positive"	"love"	NA	5.6	2.2
1	1	1	3	2	5	"posRight"	2	"a"	"l"	"APproc"	2	"AP"	"no"	171	"a"	"blackFace4.bmp"	800	"black"	1	"+"	0	"a"	"l"	164	"negative"	"vomit"	NA	5.6	2.2
1	1	1	3	2	5	"posRight"	2	"a"	"l"	"APproc"	2	"AP"	"no"	172	"l"	"whiteFace6.bmp"	1200	"white"	1	"+"	0	"l"	"a"	133	"positive"	"smile"	NA	5.6	2.2
1	1	1	3	2	5	"posRight"	2	"a"	"l"	"APproc"	2	"AP"	"no"	173	"l"	"whiteFace1.bmp"	1200	"white"	2	"+"	1	"l"	"l"	95	"positive"	"love"	NA	5.6	2.2
1	1	1	3	2	5	"posRight"	2	"a"	"l"	"APproc"	2	"AP"	"no"	174	"l"	"whiteFace3.bmp"	800	"white"	2	"+"	1	"l"	"l"	106	"positive"	"love"	NA	5.6	2.2
1	1	1	3	2	5	"posRight"	2	"a"	"l"	"APproc"	2	"AP"	"no"	175	"a"	"whiteFace6.bmp"	1000	"white"	1	"+"	0	"a"	"l"	53	"negative"	"garbage"	NA	5.6	2.2
1	1	1	3	2	5	"posRight"	2	"a"	"l"	"APproc"	2	"AP"	"no"	176	"l"	"whiteFace5.bmp"	1200	"white"	2	"+"	1	"l"	"l"	25	"positive"	"love"	NA	5.6	2.2
1	1	1	3	2	5	"posRight"	2	"a"	"l"	"APproc"	2	"AP"	"no"	177	"a"	"whiteFace1.bmp"	1000	"white"	1	"+"	0	"a"	"l"	135	"negative"	"garbage"	NA	5.6	2.2
1	1	1	3	2	5	"posRight"	2	"a"	"l"	"APproc"	2	"AP"	"no"	178	"l"	"whiteFace2.bmp"	800	"white"	2	"+"	1	"l"	"l"	137	"positive"	"smile"	NA	5.6	2.2
1	1	1	3	2	5	"posRight"	2	"a"	"l"	"APproc"	2	"AP"	"no"	179	"l"	"whiteFace1.bmp"	1200	"white"	2	"+"	1	"l"	"l"	138	"positive"	"beauty"	NA	5.6	2.2
1	1	1	3	2	5	"posRight"	2	"a"	"l"	"APproc"	2	"AP"	"no"	180	"a"	"blackFace5.bmp"	1000	"black"	1	"+"	0	"a"	"l"	140	"negative"	"vomit"	NA	5.6	2.2
1	1	1	3	2	5	"posRight"	2	"a"	"l"	"APproc"	2	"AP"	"no"	181	"l"	"blackFace7.bmp"	800	"black"	2	"+"	1	"l"	"l"	157	"positive"	"love"	NA	5.6	2.2
1	1	1	3	2	5	"posRight"	2	"a"	"l"	"APproc"	2	"AP"	"no"	182	"l"	"blackFace4.bmp"	800	"black"	2	"+"	1	"l"	"l"	158	"positive"	"beauty"	NA	5.6	2.2
1	1	1	3	2	5	"posRight"	2	"a"	"l"	"APproc"	2	"AP"	"no"	183	"a"	"whiteFace5.bmp"	1200	"white"	1	"+"	0	"a"	"l"	182	"negative"	"garbage"	NA	5.6	2.2
1	1	1	3	2	5	"posRight"	2	"a"	"l"	"APproc"	2	"AP"	"no"	184	"l"	"blackFace3.bmp"	1000	"black"	2	"+"	1	"l"	"l"	134	"positive"	"beauty"	NA	5.6	2.2
1	1	1	3	2	5	"posRight"	2	"a"	"l"	"APproc"	2	"AP"	"no"	185	"a"	"whiteFace8.bmp"	1000	"white"	2	"+"	1	"a"	"a"	208	"negative"	"garbage"	NA	5.6	2.2
1	1	1	3	2	5	"posRight"	2	"a"	"l"	"APproc"	2	"AP"	"no"	186	"a"	"whiteFace6.bmp"	1200	"white"	1	"+"	0	"a"	"l"	223	"negative"	"sewage"	NA	5.6	2.2
1	1	1	3	2	5	"posRight"	2	"a"	"l"	"APproc"	2	"AP"	"no"	187	"l"	"whiteFace2.bmp"	800	"white"	1	"+"	0	"l"	"a"	270	"positive"	"paradise"	NA	5.6	2.2
1	1	1	3	2	5	"posRight"	2	"a"	"l"	"APproc"	2	"AP"	"no"	188	"a"	"blackFace1.bmp"	1000	"black"	1	"+"	0	"a"	"l"	286	"negative"	"vomit"	NA	5.6	2.2
1	1	1	3	2	5	"posRight"	2	"a"	"l"	"APproc"	2	"AP"	"no"	189	"a"	"whiteFace8.bmp"	800	"white"	1	"+"	0	"a"	"l"	205	"negative"	"vomit"	NA	5.6	2.2
1	1	1	3	2	5	"posRight"	2	"a"	"l"	"APproc"	2	"AP"	"no"	190	"l"	"whiteFace5.bmp"	1200	"white"	1	"+"	0	"l"	"a"	173	"positive"	"smile"	NA	5.6	2.2
1	1	1	3	2	5	"posRight"	2	"a"	"l"	"APproc"	2	"AP"	"no"	191	"a"	"blackFace2.bmp"	800	"black"	1	"+"	0	"a"	"l"	133	"negative"	"poison"	NA	5.6	2.2
1	1	1	3	2	5	"posRight"	2	"a"	"l"	"APproc"	2	"AP"	"no"	192	"l"	"whiteFace8.bmp"	1200	"white"	1	"+"	0	"l"	"a"	247	"positive"	"smile"	NA	5.6	2.2
10	1	1	2	2	5	"posLeft"	1	"l"	"a"	"APproc"	2	"AP"	"no"	1	"a"	"blackFace1.bmp"	800	"black"	3	"TOO SLOW"	0	"a"	""	0	"positive"	"love"	NA	9	5.8
10	1	1	2	2	5	"posLeft"	1	"l"	"a"	"APproc"	2	"AP"	"no"	2	"a"	"whiteFace1.bmp"	1200	"white"	2	"+"	1	"a"	"a"	411	"positive"	"smile"	NA	9	5.8
10	1	1	2	2	5	"posLeft"	1	"l"	"a"	"APproc"	2	"AP"	"no"	3	"a"	"blackFace7.bmp"	1200	"black"	2	"+"	1	"a"	"a"	394	"positive"	"love"	NA	9	5.8
10	1	1	2	2	5	"posLeft"	1	"l"	"a"	"APproc"	2	"AP"	"no"	4	"a"	"whiteFace7.bmp"	1000	"white"	3	"TOO SLOW"	0	"a"	""	0	"positive"	"smile"	NA	9	5.8
10	1	1	2	2	5	"posLeft"	1	"l"	"a"	"APproc"	2	"AP"	"no"	5	"l"	"blackFace5.bmp"	800	"black"	2	"+"	1	"l"	"l"	441	"negative"	"garbage"	NA	9	5.8
10	1	1	2	2	5	"posLeft"	1	"l"	"a"	"APproc"	2	"AP"	"no"	6	"a"	"blackFace4.bmp"	1200	"black"	2	"+"	1	"a"	"a"	425	"positive"	"smile"	NA	9	5.8
10	1	1	2	2	5	"posLeft"	1	"l"	"a"	"APproc"	2	"AP"	"no"	7	"l"	"blackFace6.bmp"	800	"black"	2	"+"	1	"l"	"l"	488	"negative"	"vomit"	NA	9	5.8
10	1	1	2	2	5	"posLeft"	1	"l"	"a"	"APproc"	2	"AP"	"no"	8	"a"	"blackFace4.bmp"	1000	"black"	2	"+"	1	"a"	"a"	375	"positive"	"paradise"	NA	9	5.8
10	1	1	2	2	5	"posLeft"	1	"l"	"a"	"APproc"	2	"AP"	"no"	9	"l"	"blackFace5.bmp"	800	"black"	2	"+"	1	"l"	"l"	431	"negative"	"sewage"	NA	9	5.8
10	1	1	2	2	5	"posLeft"	1	"l"	"a"	"APproc"	2	"AP"	"no"	10	"a"	"whiteFace4.bmp"	1000	"white"	2	"+"	1	"a"	"a"	382	"positive"	"beauty"	NA	9	5.8
10	1	1	2	2	5	"posLeft"	1	"l"	"a"	"APproc"	2	"AP"	"no"	11	"l"	"whiteFace4.bmp"	1200	"white"	2	"+"	1	"l"	"l"	453	"negative"	"vomit"	NA	9	5.8
10	1	1	2	2	5	"posLeft"	1	"l"	"a"	"APproc"	2	"AP"	"no"	12	"l"	"whiteFace5.bmp"	800	"white"	2	"+"	1	"l"	"l"	461	"negative"	"garbage"	NA	9	5.8
10	1	1	2	2	5	"posLeft"	1	"l"	"a"	"APproc"	2	"AP"	"no"	13	"l"	"whiteFace3.bmp"	1200	"white"	2	"+"	1	"l"	"l"	476	"negative"	"sewage"	NA	9	5.8
10	1	1	2	2	5	"posLeft"	1	"l"	"a"	"APproc"	2	"AP"	"no"	14	"a"	"blackFace2.bmp"	1000	"black"	2	"+"	1	"a"	"a"	427	"positive"	"smile"	NA	9	5.8
10	1	1	2	2	5	"posLeft"	1	"l"	"a"	"APproc"	2	"AP"	"no"	15	"a"	"blackFace8.bmp"	1200	"black"	2	"+"	1	"a"	"a"	443	"positive"	"love"	NA	9	5.8
10	1	1	2	2	5	"posLeft"	1	"l"	"a"	"APproc"	2	"AP"	"no"	16	"a"	"whiteFace6.bmp"	1000	"white"	2	"+"	1	"a"	"a"	418	"positive"	"love"	NA	9	5.8
10	1	1	2	2	5	"posLeft"	1	"l"	"a"	"APproc"	2	"AP"	"no"	17	"a"	"blackFace5.bmp"	800	"black"	2	"+"	1	"a"	"a"	386	"positive"	"paradise"	NA	9	5.8
10	1	1	2	2	5	"posLeft"	1	"l"	"a"	"APproc"	2	"AP"	"no"	18	"a"	"whiteFace5.bmp"	1200	"white"	2	"+"	1	"a"	"a"	465	"positive"	"smile"	NA	9	5.8
10	1	1	2	2	5	"posLeft"	1	"l"	"a"	"APproc"	2	"AP"	"no"	19	"a"	"whiteFace8.bmp"	800	"white"	2	"+"	1	"a"	"a"	424	"positive"	"beauty"	NA	9	5.8
10	1	1	2	2	5	"posLeft"	1	"l"	"a"	"APproc"	2	"AP"	"no"	20	"l"	"whiteFace3.bmp"	1000	"white"	2	"+"	1	"l"	"l"	440	"negative"	"poison"	NA	9	5.8
10	1	1	2	2	5	"posLeft"	1	"l"	"a"	"APproc"	2	"AP"	"no"	21	"a"	"whiteFace4.bmp"	1000	"white"	2	"+"	1	"a"	"a"	415	"positive"	"smile"	NA	9	5.8
10	1	1	2	2	5	"posLeft"	1	"l"	"a"	"APproc"	2	"AP"	"no"	22	"l"	"whiteFace7.bmp"	1200	"white"	2	"+"	1	"l"	"l"	438	"negative"	"sewage"	NA	9	5.8
10	1	1	2	2	5	"posLeft"	1	"l"	"a"	"APproc"	2	"AP"	"no"	23	"l"	"whiteFace1.bmp"	800	"white"	2	"+"	1	"l"	"l"	430	"negative"	"sewage"	NA	9	5.8
10	1	1	2	2	5	"posLeft"	1	"l"	"a"	"APproc"	2	"AP"	"no"	24	"l"	"blackFace5.bmp"	800	"black"	2	"+"	1	"l"	"l"	445	"negative"	"vomit"	NA	9	5.8
10	1	1	2	2	5	"posLeft"	1	"l"	"a"	"APproc"	2	"AP"	"no"	25	"a"	"whiteFace5.bmp"	1200	"white"	2	"+"	1	"a"	"a"	492	"positive"	"beauty"	NA	9	5.8
10	1	1	2	2	5	"posLeft"	1	"l"	"a"	"APproc"	2	"AP"	"no"	26	"a"	"blackFace7.bmp"	1000	"black"	1	"+"	0	"a"	"l"	452	"positive"	"paradise"	NA	9	5.8
10	1	1	2	2	5	"posLeft"	1	"l"	"a"	"APproc"	2	"AP"	"no"	27	"a"	"blackFace8.bmp"	1200	"black"	2	"+"	1	"a"	"a"	427	"positive"	"beauty"	NA	9	5.8
10	1	1	2	2	5	"posLeft"	1	"l"	"a"	"APproc"	2	"AP"	"no"	28	"l"	"blackFace3.bmp"	1000	"black"	3	"TOO SLOW"	0	"l"	""	0	"negative"	"garbage"	NA	9	5.8
10	1	1	2	2	5	"posLeft"	1	"l"	"a"	"APproc"	2	"AP"	"no"	29	"l"	"blackFace2.bmp"	800	"black"	2	"+"	1	"l"	"l"	482	"negative"	"sewage"	NA	9	5.8
10	1	1	2	2	5	"posLeft"	1	"l"	"a"	"APproc"	2	"AP"	"no"	30	"l"	"whiteFace6.bmp"	1200	"white"	2	"+"	1	"l"	"l"	448	"negative"	"sewage"	NA	9	5.8
10	1	1	2	2	5	"posLeft"	1	"l"	"a"	"APproc"	2	"AP"	"no"	31	"l"	"blackFace8.bmp"	1000	"black"	2	"+"	1	"l"	"l"	480	"negative"	"poison"	NA	9	5.8
10	1	1	2	2	5	"posLeft"	1	"l"	"a"	"APproc"	2	"AP"	"no"	32	"a"	"blackFace2.bmp"	800	"black"	2	"+"	1	"a"	"a"	495	"positive"	"beauty"	NA	9	5.8
10	1	1	2	2	5	"posLeft"	1	"l"	"a"	"APproc"	2	"AP"	"no"	33	"l"	"blackFace7.bmp"	1000	"black"	2	"+"	1	"l"	"l"	470	"negative"	"garbage"	NA	9	5.8
10	1	1	2	2	5	"posLeft"	1	"l"	"a"	"APproc"	2	"AP"	"no"	34	"l"	"whiteFace2.bmp"	800	"white"	2	"+"	1	"l"	"l"	470	"negative"	"garbage"	NA	9	5.8
10	1	1	2	2	5	"posLeft"	1	"l"	"a"	"APproc"	2	"AP"	"no"	35	"l"	"whiteFace5.bmp"	1200	"white"	2	"+"	1	"l"	"l"	389	"negative"	"poison"	NA	9	5.8
10	1	1	2	2	5	"posLeft"	1	"l"	"a"	"APproc"	2	"AP"	"no"	36	"a"	"blackFace7.bmp"	1000	"black"	2	"+"	1	"a"	"a"	460	"positive"	"smile"	NA	9	5.8
10	1	1	2	2	5	"posLeft"	1	"l"	"a"	"APproc"	2	"AP"	"no"	37	"a"	"whiteFace5.bmp"	800	"white"	1	"+"	0	"a"	"l"	396	"positive"	"paradise"	NA	9	5.8
10	1	1	2	2	5	"posLeft"	1	"l"	"a"	"APproc"	2	"AP"	"no"	38	"l"	"whiteFace5.bmp"	1200	"white"	2	"+"	1	"l"	"l"	499	"negative"	"vomit"	NA	9	5.8
10	1	1	2	2	5	"posLeft"	1	"l"	"a"	"APproc"	2	"AP"	"no"	39	"l"	"blackFace2.bmp"	800	"black"	2	"+"	1	"l"	"l"	491	"negative"	"garbage"	NA	9	5.8
10	1	1	2	2	5	"posLeft"	1	"l"	"a"	"APproc"	2	"AP"	"no"	40	"a"	"whiteFace6.bmp"	1000	"white"	2	"+"	1	"a"	"a"	482	"positive"	"paradise"	NA	9	5.8
10	1	1	2	2	5	"posLeft"	1	"l"	"a"	"APproc"	2	"AP"	"no"	41	"l"	"blackFace1.bmp"	1200	"black"	2	"+"	1	"l"	"l"	441	"negative"	"vomit"	NA	9	5.8
10	1	1	2	2	5	"posLeft"	1	"l"	"a"	"APproc"	2	"AP"	"no"	42	"a"	"whiteFace8.bmp"	1000	"white"	2	"+"	1	"a"	"a"	409	"positive"	"paradise"	NA	9	5.8
10	1	1	2	2	5	"posLeft"	1	"l"	"a"	"APproc"	2	"AP"	"no"	43	"l"	"blackFace3.bmp"	1200	"black"	2	"+"	1	"l"	"l"	328	"negative"	"poison"	NA	9	5.8
10	1	1	2	2	5	"posLeft"	1	"l"	"a"	"APproc"	2	"AP"	"no"	44	"a"	"whiteFace3.bmp"	800	"white"	2	"+"	1	"a"	"a"	439	"positive"	"beauty"	NA	9	5.8
10	1	1	2	2	5	"posLeft"	1	"l"	"a"	"APproc"	2	"AP"	"no"	45	"a"	"whiteFace7.bmp"	1200	"white"	2	"+"	1	"a"	"a"	415	"positive"	"beauty"	NA	9	5.8
10	1	1	2	2	5	"posLeft"	1	"l"	"a"	"APproc"	2	"AP"	"no"	46	"l"	"whiteFace1.bmp"	1000	"white"	2	"+"	1	"l"	"l"	438	"negative"	"poison"	NA	9	5.8
10	1	1	2	2	5	"posLeft"	1	"l"	"a"	"APproc"	2	"AP"	"no"	47	"l"	"blackFace8.bmp"	800	"black"	2	"+"	1	"l"	"l"	462	"negative"	"sewage"	NA	9	5.8
10	1	1	2	2	5	"posLeft"	1	"l"	"a"	"APproc"	2	"AP"	"no"	48	"l"	"whiteFace5.bmp"	1200	"white"	2	"+"	1	"l"	"l"	453	"negative"	"sewage"	NA	9	5.8
10	1	1	2	2	5	"posLeft"	1	"l"	"a"	"APproc"	2	"AP"	"no"	49	"a"	"whiteFace3.bmp"	1000	"white"	2	"+"	1	"a"	"a"	476	"positive"	"smile"	NA	9	5.8
10	1	1	2	2	5	"posLeft"	1	"l"	"a"	"APproc"	2	"AP"	"no"	50	"l"	"whiteFace7.bmp"	800	"white"	3	"TOO SLOW"	0	"l"	""	0	"negative"	"vomit"	NA	9	5.8
10	1	1	2	2	5	"posLeft"	1	"l"	"a"	"APproc"	2	"AP"	"no"	51	"l"	"blackFace3.bmp"	1200	"black"	2	"+"	1	"l"	"l"	419	"negative"	"sewage"	NA	9	5.8
10	1	1	2	2	5	"posLeft"	1	"l"	"a"	"APproc"	2	"AP"	"no"	52	"a"	"whiteFace8.bmp"	1000	"white"	2	"+"	1	"a"	"a"	330	"positive"	"smile"	NA	9	5.8
10	1	1	2	2	5	"posLeft"	1	"l"	"a"	"APproc"	2	"AP"	"no"	53	"l"	"whiteFace1.bmp"	800	"white"	2	"+"	1	"l"	"l"	402	"negative"	"vomit"	NA	9	5.8
10	1	1	2	2	5	"posLeft"	1	"l"	"a"	"APproc"	2	"AP"	"no"	54	"l"	"blackFace7.bmp"	1000	"black"	2	"+"	1	"l"	"l"	385	"negative"	"vomit"	NA	9	5.8
10	1	1	2	2	5	"posLeft"	1	"l"	"a"	"APproc"	2	"AP"	"no"	55	"a"	"whiteFace4.bmp"	1200	"white"	2	"+"	1	"a"	"a"	408	"positive"	"love"	NA	9	5.8
10	1	1	2	2	5	"posLeft"	1	"l"	"a"	"APproc"	2	"AP"	"no"	56	"a"	"blackFace1.bmp"	800	"black"	2	"+"	1	"a"	"a"	464	"positive"	"paradise"	NA	9	5.8
10	1	1	2	2	5	"posLeft"	1	"l"	"a"	"APproc"	2	"AP"	"no"	57	"a"	"blackFace7.bmp"	800	"black"	2	"+"	1	"a"	"a"	407	"positive"	"beauty"	NA	9	5.8
10	1	1	2	2	5	"posLeft"	1	"l"	"a"	"APproc"	2	"AP"	"no"	58	"l"	"whiteFace2.bmp"	1000	"white"	2	"+"	1	"l"	"l"	471	"negative"	"sewage"	NA	9	5.8
10	1	1	2	2	5	"posLeft"	1	"l"	"a"	"APproc"	2	"AP"	"no"	59	"a"	"blackFace3.bmp"	1200	"black"	2	"+"	1	"a"	"a"	334	"positive"	"beauty"	NA	9	5.8
10	1	1	2	2	5	"posLeft"	1	"l"	"a"	"APproc"	2	"AP"	"no"	60	"l"	"blackFace5.bmp"	1000	"black"	3	"TOO SLOW"	0	"l"	""	0	"negative"	"poison"	NA	9	5.8
10	1	1	2	2	5	"posLeft"	1	"l"	"a"	"APproc"	2	"AP"	"no"	61	"a"	"blackFace6.bmp"	800	"black"	2	"+"	1	"a"	"a"	428	"positive"	"paradise"	NA	9	5.8
10	1	1	2	2	5	"posLeft"	1	"l"	"a"	"APproc"	2	"AP"	"no"	62	"a"	"blackFace8.bmp"	1200	"black"	2	"+"	1	"a"	"a"	443	"positive"	"paradise"	NA	9	5.8
10	1	1	2	2	5	"posLeft"	1	"l"	"a"	"APproc"	2	"AP"	"no"	63	"l"	"blackFace4.bmp"	1200	"black"	2	"+"	1	"l"	"l"	386	"negative"	"vomit"	NA	9	5.8
10	1	1	2	2	5	"posLeft"	1	"l"	"a"	"APproc"	2	"AP"	"no"	64	"l"	"whiteFace7.bmp"	800	"white"	2	"+"	1	"l"	"l"	425	"negative"	"garbage"	NA	9	5.8
10	1	1	2	2	5	"posLeft"	1	"l"	"a"	"APproc"	2	"AP"	"no"	65	"l"	"whiteFace2.bmp"	1000	"white"	2	"+"	1	"l"	"l"	328	"negative"	"vomit"	NA	9	5.8
10	1	1	2	2	5	"posLeft"	1	"l"	"a"	"APproc"	2	"AP"	"no"	66	"l"	"whiteFace6.bmp"	800	"white"	2	"+"	1	"l"	"l"	328	"negative"	"vomit"	NA	9	5.8
10	1	1	2	2	5	"posLeft"	1	"l"	"a"	"APproc"	2	"AP"	"no"	67	"l"	"blackFace8.bmp"	1000	"black"	2	"+"	1	"l"	"l"	463	"negative"	"garbage"	NA	9	5.8
10	1	1	2	2	5	"posLeft"	1	"l"	"a"	"APproc"	2	"AP"	"no"	68	"a"	"whiteFace2.bmp"	1200	"white"	2	"+"	1	"a"	"a"	399	"positive"	"love"	NA	9	5.8
10	1	1	2	2	5	"posLeft"	1	"l"	"a"	"APproc"	2	"AP"	"no"	69	"a"	"whiteFace2.bmp"	1000	"white"	1	"+"	0	"a"	"l"	334	"positive"	"beauty"	NA	9	5.8
10	1	1	2	2	5	"posLeft"	1	"l"	"a"	"APproc"	2	"AP"	"no"	70	"l"	"blackFace7.bmp"	1200	"black"	2	"+"	1	"l"	"l"	477	"negative"	"sewage"	NA	9	5.8
10	1	1	2	2	5	"posLeft"	1	"l"	"a"	"APproc"	2	"AP"	"no"	71	"l"	"blackFace4.bmp"	800	"black"	1	"+"	0	"l"	"a"	341	"negative"	"sewage"	NA	9	5.8
10	1	1	2	2	5	"posLeft"	1	"l"	"a"	"APproc"	2	"AP"	"no"	72	"a"	"whiteFace4.bmp"	1000	"white"	3	"TOO SLOW"	0	"a"	""	0	"positive"	"paradise"	NA	9	5.8
10	1	1	2	2	5	"posLeft"	1	"l"	"a"	"APproc"	2	"AP"	"no"	73	"l"	"whiteFace3.bmp"	800	"white"	2	"+"	1	"l"	"l"	475	"negative"	"garbage"	NA	9	5.8
10	1	1	2	2	5	"posLeft"	1	"l"	"a"	"APproc"	2	"AP"	"no"	74	"l"	"whiteFace4.bmp"	1200	"white"	2	"+"	1	"l"	"l"	355	"negative"	"sewage"	NA	9	5.8
10	1	1	2	2	5	"posLeft"	1	"l"	"a"	"APproc"	2	"AP"	"no"	75	"l"	"whiteFace8.bmp"	800	"white"	2	"+"	1	"l"	"l"	434	"negative"	"sewage"	NA	9	5.8
10	1	1	2	2	5	"posLeft"	1	"l"	"a"	"APproc"	2	"AP"	"no"	76	"a"	"blackFace6.bmp"	1000	"black"	2	"+"	1	"a"	"a"	321	"positive"	"smile"	NA	9	5.8
10	1	1	2	2	5	"posLeft"	1	"l"	"a"	"APproc"	2	"AP"	"no"	77	"a"	"whiteFace7.bmp"	1200	"white"	3	"TOO SLOW"	0	"a"	""	0	"positive"	"paradise"	NA	9	5.8
10	1	1	2	2	5	"posLeft"	1	"l"	"a"	"APproc"	2	"AP"	"no"	78	"l"	"blackFace2.bmp"	1000	"black"	2	"+"	1	"l"	"l"	416	"negative"	"vomit"	NA	9	5.8
10	1	1	2	2	5	"posLeft"	1	"l"	"a"	"APproc"	2	"AP"	"no"	79	"a"	"whiteFace6.bmp"	1200	"white"	2	"+"	1	"a"	"a"	400	"positive"	"beauty"	NA	9	5.8
10	1	1	2	2	5	"posLeft"	1	"l"	"a"	"APproc"	2	"AP"	"no"	80	"a"	"whiteFace2.bmp"	800	"white"	3	"TOO SLOW"	0	"a"	""	0	"positive"	"smile"	NA	9	5.8
10	1	1	2	2	5	"posLeft"	1	"l"	"a"	"APproc"	2	"AP"	"no"	81	"a"	"blackFace5.bmp"	1200	"black"	2	"+"	1	"a"	"a"	390	"positive"	"beauty"	NA	9	5.8
10	1	1	2	2	5	"posLeft"	1	"l"	"a"	"APproc"	2	"AP"	"no"	82	"l"	"blackFace4.bmp"	800	"black"	2	"+"	1	"l"	"l"	462	"negative"	"garbage"	NA	9	5.8
10	1	1	2	2	5	"posLeft"	1	"l"	"a"	"APproc"	2	"AP"	"no"	83	"a"	"whiteFace5.bmp"	1000	"white"	1	"+"	0	"a"	"l"	341	"positive"	"love"	NA	9	5.8
10	1	1	2	2	5	"posLeft"	1	"l"	"a"	"APproc"	2	"AP"	"no"	84	"l"	"blackFace1.bmp"	800	"black"	1	"+"	0	"l"	"a"	388	"negative"	"sewage"	NA	9	5.8
10	1	1	2	2	5	"posLeft"	1	"l"	"a"	"APproc"	2	"AP"	"no"	85	"a"	"blackFace8.bmp"	1200	"black"	2	"+"	1	"a"	"a"	364	"positive"	"smile"	NA	9	5.8
10	1	1	2	2	5	"posLeft"	1	"l"	"a"	"APproc"	2	"AP"	"no"	86	"l"	"blackFace7.bmp"	1000	"black"	1	"+"	0	"l"	"a"	355	"negative"	"poison"	NA	9	5.8
10	1	1	2	2	5	"posLeft"	1	"l"	"a"	"APproc"	2	"AP"	"no"	87	"a"	"whiteFace1.bmp"	1200	"white"	3	"TOO SLOW"	0	"a"	""	0	"positive"	"love"	NA	9	5.8
10	1	1	2	2	5	"posLeft"	1	"l"	"a"	"APproc"	2	"AP"	"no"	88	"l"	"whiteFace6.bmp"	800	"white"	1	"+"	0	"l"	"a"	305	"negative"	"garbage"	NA	9	5.8
10	1	1	2	2	5	"posLeft"	1	"l"	"a"	"APproc"	2	"AP"	"no"	89	"l"	"blackFace1.bmp"	1000	"black"	1	"+"	0	"l"	"a"	377	"negative"	"garbage"	NA	9	5.8
10	1	1	2	2	5	"posLeft"	1	"l"	"a"	"APproc"	2	"AP"	"no"	90	"l"	"blackFace1.bmp"	1200	"black"	2	"+"	1	"l"	"l"	392	"negative"	"poison"	NA	9	5.8
10	1	1	2	2	5	"posLeft"	1	"l"	"a"	"APproc"	2	"AP"	"no"	91	"a"	"whiteFace2.bmp"	800	"white"	2	"+"	1	"a"	"a"	407	"positive"	"paradise"	NA	9	5.8
10	1	1	2	2	5	"posLeft"	1	"l"	"a"	"APproc"	2	"AP"	"no"	92	"a"	"whiteFace1.bmp"	1000	"white"	2	"+"	1	"a"	"a"	391	"positive"	"beauty"	NA	9	5.8
10	1	1	2	2	5	"posLeft"	1	"l"	"a"	"APproc"	2	"AP"	"no"	93	"a"	"blackFace2.bmp"	1200	"black"	2	"+"	1	"a"	"a"	382	"positive"	"love"	NA	9	5.8
10	1	1	2	2	5	"posLeft"	1	"l"	"a"	"APproc"	2	"AP"	"no"	94	"a"	"blackFace6.bmp"	800	"black"	2	"+"	1	"a"	"a"	373	"positive"	"beauty"	NA	9	5.8
10	1	1	2	2	5	"posLeft"	1	"l"	"a"	"APproc"	2	"AP"	"no"	95	"a"	"blackFace3.bmp"	1000	"black"	2	"+"	1	"a"	"a"	276	"positive"	"smile"	NA	9	5.8
10	1	1	2	2	5	"posLeft"	1	"l"	"a"	"APproc"	2	"AP"	"no"	96	"a"	"blackFace5.bmp"	1000	"black"	2	"+"	1	"a"	"a"	339	"positive"	"smile"	NA	9	5.8
10	1	1	2	2	5	"posLeft"	1	"l"	"a"	"APproc"	2	"AP"	"no"	97	"l"	"blackFace6.bmp"	1200	"black"	2	"+"	1	"l"	"l"	464	"negative"	"poison"	NA	9	5.8
10	1	1	2	2	5	"posLeft"	1	"l"	"a"	"APproc"	2	"AP"	"no"	98	"l"	"whiteFace6.bmp"	800	"white"	3	"TOO SLOW"	0	"l"	""	0	"negative"	"poison"	NA	9	5.8
10	1	1	2	2	5	"posLeft"	1	"l"	"a"	"APproc"	2	"AP"	"no"	99	"a"	"whiteFace8.bmp"	1000	"white"	1	"+"	0	"a"	"l"	375	"positive"	"love"	NA	9	5.8
10	1	1	2	2	5	"posLeft"	1	"l"	"a"	"APproc"	2	"AP"	"no"	100	"a"	"blackFace4.bmp"	800	"black"	2	"+"	1	"a"	"a"	406	"positive"	"beauty"	NA	9	5.8
10	1	1	2	2	5	"posLeft"	1	"l"	"a"	"APproc"	2	"AP"	"no"	101	"l"	"blackFace3.bmp"	1200	"black"	2	"+"	1	"l"	"l"	389	"negative"	"vomit"	NA	9	5.8
10	1	1	2	2	5	"posLeft"	1	"l"	"a"	"APproc"	2	"AP"	"no"	102	"a"	"whiteFace3.bmp"	1000	"white"	2	"+"	1	"a"	"a"	453	"positive"	"love"	NA	9	5.8
10	1	1	2	2	5	"posLeft"	1	"l"	"a"	"APproc"	2	"AP"	"no"	103	"l"	"blackFace8.bmp"	800	"black"	1	"+"	0	"l"	"a"	356	"negative"	"vomit"	NA	9	5.8
10	1	1	2	2	5	"posLeft"	1	"l"	"a"	"APproc"	2	"AP"	"no"	104	"l"	"blackFace6.bmp"	1200	"black"	2	"+"	1	"l"	"l"	411	"negative"	"garbage"	NA	9	5.8
10	1	1	2	2	5	"posLeft"	1	"l"	"a"	"APproc"	2	"AP"	"no"	105	"a"	"blackFace3.bmp"	1200	"black"	2	"+"	1	"a"	"a"	459	"positive"	"love"	NA	9	5.8
10	1	1	2	2	5	"posLeft"	1	"l"	"a"	"APproc"	2	"AP"	"no"	106	"a"	"whiteFace7.bmp"	800	"white"	2	"+"	1	"a"	"a"	418	"positive"	"love"	NA	9	5.8
10	1	1	2	2	5	"posLeft"	1	"l"	"a"	"APproc"	2	"AP"	"no"	107	"l"	"whiteFace3.bmp"	1000	"white"	3	"TOO SLOW"	0	"l"	""	0	"negative"	"vomit"	NA	9	5.8
10	1	1	2	2	5	"posLeft"	1	"l"	"a"	"APproc"	2	"AP"	"no"	108	"a"	"blackFace1.bmp"	800	"black"	2	"+"	1	"a"	"a"	376	"positive"	"smile"	NA	9	5.8
10	1	1	2	2	5	"posLeft"	1	"l"	"a"	"APproc"	2	"AP"	"no"	109	"l"	"whiteFace8.bmp"	1200	"white"	2	"+"	1	"l"	"l"	376	"negative"	"vomit"	NA	9	5.8
10	1	1	2	2	5	"posLeft"	1	"l"	"a"	"APproc"	2	"AP"	"no"	110	"a"	"blackFace4.bmp"	1000	"black"	2	"+"	1	"a"	"a"	359	"positive"	"love"	NA	9	5.8
10	1	1	2	2	5	"posLeft"	1	"l"	"a"	"APproc"	2	"AP"	"no"	111	"l"	"whiteFace8.bmp"	800	"white"	2	"+"	1	"l"	"l"	486	"negative"	"garbage"	NA	9	5.8
10	1	1	2	2	5	"posLeft"	1	"l"	"a"	"APproc"	2	"AP"	"no"	112	"l"	"whiteFace7.bmp"	1200	"white"	2	"+"	1	"l"	"l"	478	"negative"	"poison"	NA	9	5.8
10	1	1	2	2	5	"posLeft"	1	"l"	"a"	"APproc"	2	"AP"	"no"	113	"l"	"blackFace4.bmp"	1000	"black"	2	"+"	1	"l"	"l"	421	"negative"	"poison"	NA	9	5.8
10	1	1	2	2	5	"posLeft"	1	"l"	"a"	"APproc"	2	"AP"	"no"	114	"a"	"blackFace2.bmp"	800	"black"	3	"TOO SLOW"	0	"a"	""	0	"positive"	"paradise"	NA	9	5.8
10	1	1	2	2	5	"posLeft"	1	"l"	"a"	"APproc"	2	"AP"	"no"	115	"a"	"blackFace6.bmp"	1000	"black"	3	"TOO SLOW"	0	"a"	""	0	"positive"	"love"	NA	9	5.8
10	1	1	2	2	5	"posLeft"	1	"l"	"a"	"APproc"	2	"AP"	"no"	116	"l"	"blackFace2.bmp"	1200	"black"	2	"+"	1	"l"	"l"	386	"negative"	"poison"	NA	9	5.8
10	1	1	2	2	5	"posLeft"	1	"l"	"a"	"APproc"	2	"AP"	"no"	117	"a"	"blackFace5.bmp"	800	"black"	2	"+"	1	"a"	"a"	434	"positive"	"love"	NA	9	5.8
10	1	1	2	2	5	"posLeft"	1	"l"	"a"	"APproc"	2	"AP"	"no"	118	"a"	"blackFace3.bmp"	1200	"black"	2	"+"	1	"a"	"a"	489	"positive"	"paradise"	NA	9	5.8
10	1	1	2	2	5	"posLeft"	1	"l"	"a"	"APproc"	2	"AP"	"no"	119	"a"	"whiteFace6.bmp"	1000	"white"	1	"+"	0	"a"	"l"	377	"positive"	"smile"	NA	9	5.8
10	1	1	2	2	5	"posLeft"	1	"l"	"a"	"APproc"	2	"AP"	"no"	120	"l"	"whiteFace4.bmp"	1200	"white"	2	"+"	1	"l"	"l"	448	"negative"	"garbage"	NA	9	5.8
10	1	1	2	2	5	"posLeft"	1	"l"	"a"	"APproc"	2	"AP"	"no"	121	"l"	"whiteFace4.bmp"	1000	"white"	3	"TOO SLOW"	0	"l"	""	0	"negative"	"poison"	NA	9	5.8
10	1	1	2	2	5	"posLeft"	1	"l"	"a"	"APproc"	2	"AP"	"no"	122	"a"	"whiteFace3.bmp"	800	"white"	3	"TOO SLOW"	0	"a"	""	0	"positive"	"paradise"	NA	9	5.8
10	1	1	2	2	5	"posLeft"	1	"l"	"a"	"APproc"	2	"AP"	"no"	123	"l"	"whiteFace8.bmp"	800	"white"	2	"+"	1	"l"	"l"	413	"negative"	"poison"	NA	9	5.8
10	1	1	2	2	5	"posLeft"	1	"l"	"a"	"APproc"	2	"AP"	"no"	124	"l"	"blackFace6.bmp"	1000	"black"	3	"TOO SLOW"	0	"l"	""	0	"negative"	"sewage"	NA	9	5.8
10	1	1	2	2	5	"posLeft"	1	"l"	"a"	"APproc"	2	"AP"	"no"	125	"l"	"whiteFace1.bmp"	1200	"white"	2	"+"	1	"l"	"l"	427	"negative"	"garbage"	NA	9	5.8
10	1	1	2	2	5	"posLeft"	1	"l"	"a"	"APproc"	2	"AP"	"no"	126	"l"	"whiteFace2.bmp"	1200	"white"	2	"+"	1	"l"	"l"	402	"negative"	"poison"	NA	9	5.8
10	1	1	2	2	5	"posLeft"	1	"l"	"a"	"APproc"	2	"AP"	"no"	127	"a"	"whiteFace1.bmp"	800	"white"	1	"+"	0	"a"	"l"	258	"positive"	"paradise"	NA	9	5.8
10	1	1	2	2	5	"posLeft"	1	"l"	"a"	"APproc"	2	"AP"	"no"	128	"a"	"blackFace1.bmp"	1000	"black"	3	"TOO SLOW"	0	"a"	""	0	"positive"	"beauty"	NA	9	5.8
10	1	1	2	2	5	"posLeft"	1	"l"	"a"	"APproc"	2	"AP"	"no"	129	"a"	"blackFace2.bmp"	800	"black"	2	"+"	1	"a"	"a"	329	"positive"	"beauty"	NA	9	5.8
10	1	1	2	2	5	"posLeft"	1	"l"	"a"	"APproc"	2	"AP"	"no"	130	"l"	"whiteFace8.bmp"	1200	"white"	2	"+"	1	"l"	"l"	472	"negative"	"sewage"	NA	9	5.8
10	1	1	2	2	5	"posLeft"	1	"l"	"a"	"APproc"	2	"AP"	"no"	131	"a"	"whiteFace5.bmp"	1000	"white"	2	"+"	1	"a"	"a"	431	"positive"	"love"	NA	9	5.8
10	1	1	2	2	5	"posLeft"	1	"l"	"a"	"APproc"	2	"AP"	"no"	132	"a"	"blackFace4.bmp"	1200	"black"	2	"+"	1	"a"	"a"	375	"positive"	"love"	NA	9	5.8
10	1	1	2	2	5	"posLeft"	1	"l"	"a"	"APproc"	2	"AP"	"no"	133	"l"	"blackFace4.bmp"	800	"black"	3	"TOO SLOW"	0	"l"	""	0	"negative"	"poison"	NA	9	5.8
10	1	1	2	2	5	"posLeft"	1	"l"	"a"	"APproc"	2	"AP"	"no"	134	"l"	"blackFace5.bmp"	1000	"black"	3	"TOO SLOW"	0	"l"	""	0	"negative"	"sewage"	NA	9	5.8
10	1	1	2	2	5	"posLeft"	1	"l"	"a"	"APproc"	2	"AP"	"no"	135	"a"	"whiteFace6.bmp"	1000	"white"	1	"+"	0	"a"	"l"	356	"positive"	"paradise"	NA	9	5.8
10	1	1	2	2	5	"posLeft"	1	"l"	"a"	"APproc"	2	"AP"	"no"	136	"a"	"blackFace6.bmp"	800	"black"	1	"+"	0	"a"	"l"	251	"positive"	"beauty"	NA	9	5.8
10	1	1	2	2	5	"posLeft"	1	"l"	"a"	"APproc"	2	"AP"	"no"	137	"a"	"whiteFace3.bmp"	1200	"white"	2	"+"	1	"a"	"a"	411	"positive"	"beauty"	NA	9	5.8
10	1	1	2	2	5	"posLeft"	1	"l"	"a"	"APproc"	2	"AP"	"no"	138	"a"	"whiteFace5.bmp"	1200	"white"	2	"+"	1	"a"	"a"	458	"positive"	"smile"	NA	9	5.8
10	1	1	2	2	5	"posLeft"	1	"l"	"a"	"APproc"	2	"AP"	"no"	139	"a"	"blackFace8.bmp"	800	"black"	2	"+"	1	"a"	"a"	417	"positive"	"paradise"	NA	9	5.8
10	1	1	2	2	5	"posLeft"	1	"l"	"a"	"APproc"	2	"AP"	"no"	140	"a"	"blackFace5.bmp"	1000	"black"	2	"+"	1	"a"	"a"	257	"positive"	"smile"	NA	9	5.8
10	1	1	2	2	5	"posLeft"	1	"l"	"a"	"APproc"	2	"AP"	"no"	141	"l"	"whiteFace8.bmp"	1000	"white"	2	"+"	1	"l"	"l"	352	"negative"	"vomit"	NA	9	5.8
10	1	1	2	2	5	"posLeft"	1	"l"	"a"	"APproc"	2	"AP"	"no"	142	"a"	"blackFace2.bmp"	800	"black"	2	"+"	1	"a"	"a"	480	"positive"	"paradise"	NA	9	5.8
10	1	1	2	2	5	"posLeft"	1	"l"	"a"	"APproc"	2	"AP"	"no"	143	"l"	"whiteFace6.bmp"	1200	"white"	1	"+"	0	"l"	"a"	375	"negative"	"garbage"	NA	9	5.8
10	1	1	2	2	5	"posLeft"	1	"l"	"a"	"APproc"	2	"AP"	"no"	144	"a"	"whiteFace3.bmp"	800	"white"	2	"+"	1	"a"	"a"	374	"positive"	"smile"	NA	9	5.8
10	1	1	2	2	5	"posLeft"	1	"l"	"a"	"APproc"	2	"AP"	"no"	145	"l"	"whiteFace2.bmp"	1200	"white"	3	"TOO SLOW"	0	"l"	""	0	"negative"	"garbage"	NA	9	5.8
10	1	1	2	2	5	"posLeft"	1	"l"	"a"	"APproc"	2	"AP"	"no"	146	"l"	"blackFace8.bmp"	1000	"black"	3	"TOO SLOW"	0	"l"	""	0	"negative"	"garbage"	NA	9	5.8
10	1	1	2	2	5	"posLeft"	1	"l"	"a"	"APproc"	2	"AP"	"no"	147	"l"	"whiteFace3.bmp"	1200	"white"	2	"+"	1	"l"	"l"	388	"negative"	"sewage"	NA	9	5.8
10	1	1	2	2	5	"posLeft"	1	"l"	"a"	"APproc"	2	"AP"	"no"	148	"a"	"blackFace1.bmp"	1000	"black"	2	"+"	1	"a"	"a"	380	"positive"	"paradise"	NA	9	5.8
10	1	1	2	2	5	"posLeft"	1	"l"	"a"	"APproc"	2	"AP"	"no"	149	"a"	"whiteFace7.bmp"	800	"white"	1	"+"	0	"a"	"l"	323	"positive"	"beauty"	NA	9	5.8
10	1	1	2	2	5	"posLeft"	1	"l"	"a"	"APproc"	2	"AP"	"no"	150	"l"	"whiteFace1.bmp"	800	"white"	1	"+"	0	"l"	"a"	259	"negative"	"vomit"	NA	9	5.8
10	1	1	2	2	5	"posLeft"	1	"l"	"a"	"APproc"	2	"AP"	"no"	151	"a"	"whiteFace4.bmp"	1000	"white"	2	"+"	1	"a"	"a"	410	"positive"	"smile"	NA	9	5.8
10	1	1	2	2	5	"posLeft"	1	"l"	"a"	"APproc"	2	"AP"	"no"	152	"a"	"whiteFace1.bmp"	1200	"white"	1	"+"	0	"a"	"l"	329	"positive"	"beauty"	NA	9	5.8
10	1	1	2	2	5	"posLeft"	1	"l"	"a"	"APproc"	2	"AP"	"no"	153	"a"	"blackFace8.bmp"	800	"black"	1	"+"	0	"a"	"l"	297	"positive"	"love"	NA	9	5.8
10	1	1	2	2	5	"posLeft"	1	"l"	"a"	"APproc"	2	"AP"	"no"	154	"l"	"blackFace1.bmp"	1200	"black"	1	"+"	0	"l"	"a"	352	"negative"	"poison"	NA	9	5.8
10	1	1	2	2	5	"posLeft"	1	"l"	"a"	"APproc"	2	"AP"	"no"	155	"a"	"whiteFace7.bmp"	1000	"white"	3	"TOO SLOW"	0	"a"	""	0	"positive"	"paradise"	NA	9	5.8
10	1	1	2	2	5	"posLeft"	1	"l"	"a"	"APproc"	2	"AP"	"no"	156	"a"	"blackFace2.bmp"	1000	"black"	2	"+"	1	"a"	"a"	461	"positive"	"smile"	NA	9	5.8
10	1	1	2	2	5	"posLeft"	1	"l"	"a"	"APproc"	2	"AP"	"no"	157	"l"	"whiteFace4.bmp"	800	"white"	3	"TOO SLOW"	0	"l"	""	0	"negative"	"sewage"	NA	9	5.8
10	1	1	2	2	5	"posLeft"	1	"l"	"a"	"APproc"	2	"AP"	"no"	158	"a"	"whiteFace1.bmp"	1200	"white"	1	"+"	0	"a"	"l"	491	"positive"	"love"	NA	9	5.8
10	1	1	2	2	5	"posLeft"	1	"l"	"a"	"APproc"	2	"AP"	"no"	159	"a"	"blackFace2.bmp"	1000	"black"	2	"+"	1	"a"	"a"	362	"positive"	"love"	NA	9	5.8
10	1	1	2	2	5	"posLeft"	1	"l"	"a"	"APproc"	2	"AP"	"no"	160	"l"	"blackFace4.bmp"	1200	"black"	2	"+"	1	"l"	"l"	402	"negative"	"garbage"	NA	9	5.8
10	1	1	2	2	5	"posLeft"	1	"l"	"a"	"APproc"	2	"AP"	"no"	161	"a"	"whiteFace2.bmp"	800	"white"	1	"+"	0	"a"	"l"	409	"positive"	"paradise"	NA	9	5.8
10	1	1	2	2	5	"posLeft"	1	"l"	"a"	"APproc"	2	"AP"	"no"	162	"a"	"whiteFace5.bmp"	800	"white"	2	"+"	1	"a"	"a"	329	"positive"	"beauty"	NA	9	5.8
10	1	1	2	2	5	"posLeft"	1	"l"	"a"	"APproc"	2	"AP"	"no"	163	"a"	"whiteFace1.bmp"	1200	"white"	2	"+"	1	"a"	"a"	376	"positive"	"paradise"	NA	9	5.8
10	1	1	2	2	5	"posLeft"	1	"l"	"a"	"APproc"	2	"AP"	"no"	164	"l"	"blackFace7.bmp"	1000	"black"	2	"+"	1	"l"	"l"	447	"negative"	"sewage"	NA	9	5.8
10	1	1	2	2	5	"posLeft"	1	"l"	"a"	"APproc"	2	"AP"	"no"	165	"a"	"blackFace8.bmp"	1000	"black"	2	"+"	1	"a"	"a"	375	"positive"	"beauty"	NA	9	5.8
10	1	1	2	2	5	"posLeft"	1	"l"	"a"	"APproc"	2	"AP"	"no"	166	"a"	"whiteFace7.bmp"	1200	"white"	1	"+"	0	"a"	"l"	366	"positive"	"smile"	NA	9	5.8
10	1	1	2	2	5	"posLeft"	1	"l"	"a"	"APproc"	2	"AP"	"no"	167	"l"	"whiteFace1.bmp"	800	"white"	2	"+"	1	"l"	"l"	413	"negative"	"poison"	NA	9	5.8
10	1	1	2	2	5	"posLeft"	1	"l"	"a"	"APproc"	2	"AP"	"no"	168	"l"	"blackFace3.bmp"	1000	"black"	2	"+"	1	"l"	"l"	469	"negative"	"garbage"	NA	9	5.8
10	1	1	2	2	5	"posLeft"	1	"l"	"a"	"APproc"	2	"AP"	"no"	169	"l"	"blackFace4.bmp"	800	"black"	2	"+"	1	"l"	"l"	436	"negative"	"vomit"	NA	9	5.8
10	1	1	2	2	5	"posLeft"	1	"l"	"a"	"APproc"	2	"AP"	"no"	170	"l"	"blackFace3.bmp"	1200	"black"	2	"+"	1	"l"	"l"	411	"negative"	"vomit"	NA	9	5.8
10	1	1	2	2	5	"posLeft"	1	"l"	"a"	"APproc"	2	"AP"	"no"	171	"l"	"blackFace5.bmp"	800	"black"	1	"+"	0	"l"	"a"	291	"negative"	"poison"	NA	9	5.8
10	1	1	2	2	5	"posLeft"	1	"l"	"a"	"APproc"	2	"AP"	"no"	172	"l"	"blackFace2.bmp"	1200	"black"	2	"+"	1	"l"	"l"	354	"negative"	"vomit"	NA	9	5.8
10	1	1	2	2	5	"posLeft"	1	"l"	"a"	"APproc"	2	"AP"	"no"	173	"l"	"whiteFace2.bmp"	1000	"white"	2	"+"	1	"l"	"l"	466	"negative"	"poison"	NA	9	5.8
10	1	1	2	2	5	"posLeft"	1	"l"	"a"	"APproc"	2	"AP"	"no"	174	"l"	"whiteFace3.bmp"	1000	"white"	2	"+"	1	"l"	"l"	321	"negative"	"vomit"	NA	9	5.8
10	1	1	2	2	5	"posLeft"	1	"l"	"a"	"APproc"	2	"AP"	"no"	175	"l"	"blackFace3.bmp"	1200	"black"	2	"+"	1	"l"	"l"	448	"negative"	"poison"	NA	9	5.8
10	1	1	2	2	5	"posLeft"	1	"l"	"a"	"APproc"	2	"AP"	"no"	176	"a"	"blackFace7.bmp"	800	"black"	1	"+"	0	"a"	"l"	376	"positive"	"paradise"	NA	9	5.8
10	1	1	2	2	5	"posLeft"	1	"l"	"a"	"APproc"	2	"AP"	"no"	177	"l"	"whiteFace6.bmp"	1200	"white"	3	"TOO SLOW"	0	"l"	""	0	"negative"	"sewage"	NA	9	5.8
10	1	1	2	2	5	"posLeft"	1	"l"	"a"	"APproc"	2	"AP"	"no"	178	"a"	"blackFace5.bmp"	800	"black"	2	"+"	1	"a"	"a"	382	"positive"	"beauty"	NA	9	5.8
10	1	1	2	2	5	"posLeft"	1	"l"	"a"	"APproc"	2	"AP"	"no"	179	"l"	"whiteFace8.bmp"	1000	"white"	2	"+"	1	"l"	"l"	382	"negative"	"poison"	NA	9	5.8
10	1	1	2	2	5	"posLeft"	1	"l"	"a"	"APproc"	2	"AP"	"no"	180	"l"	"blackFace8.bmp"	1000	"black"	2	"+"	1	"l"	"l"	397	"negative"	"sewage"	NA	9	5.8
10	1	1	2	2	5	"posLeft"	1	"l"	"a"	"APproc"	2	"AP"	"no"	181	"l"	"blackFace1.bmp"	800	"black"	2	"+"	1	"l"	"l"	404	"negative"	"sewage"	NA	9	5.8
10	1	1	2	2	5	"posLeft"	1	"l"	"a"	"APproc"	2	"AP"	"no"	182	"a"	"blackFace8.bmp"	1200	"black"	3	"TOO SLOW"	0	"a"	""	0	"positive"	"smile"	NA	9	5.8
10	1	1	2	2	5	"posLeft"	1	"l"	"a"	"APproc"	2	"AP"	"no"	183	"a"	"blackFace3.bmp"	1000	"black"	1	"+"	0	"a"	"l"	347	"positive"	"love"	NA	9	5.8
10	1	1	2	2	5	"posLeft"	1	"l"	"a"	"APproc"	2	"AP"	"no"	184	"l"	"whiteFace4.bmp"	800	"white"	2	"+"	1	"l"	"l"	363	"negative"	"garbage"	NA	9	5.8
10	1	1	2	2	5	"posLeft"	1	"l"	"a"	"APproc"	2	"AP"	"no"	185	"l"	"blackFace6.bmp"	1200	"black"	1	"+"	0	"l"	"a"	354	"negative"	"sewage"	NA	9	5.8
10	1	1	2	2	5	"posLeft"	1	"l"	"a"	"APproc"	2	"AP"	"no"	186	"l"	"whiteFace3.bmp"	1000	"white"	2	"+"	1	"l"	"l"	313	"negative"	"garbage"	NA	9	5.8
10	1	1	2	2	5	"posLeft"	1	"l"	"a"	"APproc"	2	"AP"	"no"	187	"a"	"whiteFace2.bmp"	1200	"white"	1	"+"	0	"a"	"l"	312	"positive"	"smile"	NA	9	5.8
10	1	1	2	2	5	"posLeft"	1	"l"	"a"	"APproc"	2	"AP"	"no"	188	"a"	"whiteFace8.bmp"	800	"white"	2	"+"	1	"a"	"a"	367	"positive"	"beauty"	NA	9	5.8
10	1	1	2	2	5	"posLeft"	1	"l"	"a"	"APproc"	2	"AP"	"no"	189	"a"	"blackFace5.bmp"	800	"black"	2	"+"	1	"a"	"a"	406	"positive"	"love"	NA	9	5.8
10	1	1	2	2	5	"posLeft"	1	"l"	"a"	"APproc"	2	"AP"	"no"	190	"l"	"whiteFace7.bmp"	1000	"white"	2	"+"	1	"l"	"l"	398	"negative"	"garbage"	NA	9	5.8
10	1	1	2	2	5	"posLeft"	1	"l"	"a"	"APproc"	2	"AP"	"no"	191	"l"	"blackFace6.bmp"	1200	"black"	3	"TOO SLOW"	0	"l"	""	0	"negative"	"garbage"	NA	9	5.8
10	1	1	2	2	5	"posLeft"	1	"l"	"a"	"APproc"	2	"AP"	"no"	192	"l"	"whiteFace6.bmp"	1200	"white"	2	"+"	1	"l"	"l"	381	"negative"	"vomit"	NA	9	5.8
100	1	1	3	1	5	"posRight"	2	"a"	"l"	"APproc"	2	"AP"	"no"	1	"l"	"blackFace1.bmp"	1000	"black"	2	"+"	1	"l"	"l"	426	"positive"	"paradise"	NA	4.4	5.2
100	1	1	3	1	5	"posRight"	2	"a"	"l"	"APproc"	2	"AP"	"no"	2	"l"	"blackFace4.bmp"	800	"black"	1	"+"	0	"l"	"a"	362	"positive"	"beauty"	NA	4.4	5.2
100	1	1	3	1	5	"posRight"	2	"a"	"l"	"APproc"	2	"AP"	"no"	3	"l"	"whiteFace1.bmp"	1000	"white"	1	"+"	0	"l"	"a"	272	"positive"	"paradise"	NA	4.4	5.2
100	1	1	3	1	5	"posRight"	2	"a"	"l"	"APproc"	2	"AP"	"no"	4	"l"	"blackFace8.bmp"	1200	"black"	2	"+"	1	"l"	"l"	288	"positive"	"beauty"	NA	4.4	5.2
100	1	1	3	1	5	"posRight"	2	"a"	"l"	"APproc"	2	"AP"	"no"	5	"a"	"whiteFace4.bmp"	800	"white"	2	"+"	1	"a"	"a"	359	"negative"	"sewage"	NA	4.4	5.2
100	1	1	3	1	5	"posRight"	2	"a"	"l"	"APproc"	2	"AP"	"no"	6	"l"	"blackFace5.bmp"	1200	"black"	2	"+"	1	"l"	"l"	206	"positive"	"smile"	NA	4.4	5.2
100	1	1	3	1	5	"posRight"	2	"a"	"l"	"APproc"	2	"AP"	"no"	7	"l"	"blackFace1.bmp"	1000	"black"	2	"+"	1	"l"	"l"	262	"positive"	"beauty"	NA	4.4	5.2
100	1	1	3	1	5	"posRight"	2	"a"	"l"	"APproc"	2	"AP"	"no"	8	"l"	"whiteFace7.bmp"	1200	"white"	2	"+"	1	"l"	"l"	373	"positive"	"paradise"	NA	4.4	5.2
100	1	1	3	1	5	"posRight"	2	"a"	"l"	"APproc"	2	"AP"	"no"	9	"a"	"whiteFace4.bmp"	800	"white"	2	"+"	1	"a"	"a"	293	"negative"	"garbage"	NA	4.4	5.2
100	1	1	3	1	5	"posRight"	2	"a"	"l"	"APproc"	2	"AP"	"no"	10	"a"	"whiteFace3.bmp"	1000	"white"	1	"+"	0	"a"	"l"	268	"negative"	"garbage"	NA	4.4	5.2
100	1	1	3	1	5	"posRight"	2	"a"	"l"	"APproc"	2	"AP"	"no"	11	"a"	"whiteFace1.bmp"	1000	"white"	2	"+"	1	"a"	"a"	307	"negative"	"garbage"	NA	4.4	5.2
100	1	1	3	1	5	"posRight"	2	"a"	"l"	"APproc"	2	"AP"	"no"	12	"l"	"whiteFace8.bmp"	1200	"white"	2	"+"	1	"l"	"l"	435	"positive"	"beauty"	NA	4.4	5.2
100	1	1	3	1	5	"posRight"	2	"a"	"l"	"APproc"	2	"AP"	"no"	13	"a"	"blackFace1.bmp"	800	"black"	2	"+"	1	"a"	"a"	402	"negative"	"sewage"	NA	4.4	5.2
100	1	1	3	1	5	"posRight"	2	"a"	"l"	"APproc"	2	"AP"	"no"	14	"a"	"whiteFace7.bmp"	1000	"white"	1	"+"	0	"a"	"l"	329	"negative"	"garbage"	NA	4.4	5.2
100	1	1	3	1	5	"posRight"	2	"a"	"l"	"APproc"	2	"AP"	"no"	15	"a"	"whiteFace1.bmp"	800	"white"	2	"+"	1	"a"	"a"	385	"negative"	"sewage"	NA	4.4	5.2
100	1	1	3	1	5	"posRight"	2	"a"	"l"	"APproc"	2	"AP"	"no"	16	"a"	"whiteFace2.bmp"	1200	"white"	1	"+"	0	"a"	"l"	288	"negative"	"poison"	NA	4.4	5.2
100	1	1	3	1	5	"posRight"	2	"a"	"l"	"APproc"	2	"AP"	"no"	17	"a"	"whiteFace4.bmp"	800	"white"	2	"+"	1	"a"	"a"	368	"negative"	"vomit"	NA	4.4	5.2
100	1	1	3	1	5	"posRight"	2	"a"	"l"	"APproc"	2	"AP"	"no"	18	"l"	"whiteFace2.bmp"	1000	"white"	2	"+"	1	"l"	"l"	391	"positive"	"beauty"	NA	4.4	5.2
100	1	1	3	1	5	"posRight"	2	"a"	"l"	"APproc"	2	"AP"	"no"	19	"a"	"blackFace3.bmp"	1200	"black"	2	"+"	1	"a"	"a"	374	"negative"	"garbage"	NA	4.4	5.2
100	1	1	3	1	5	"posRight"	2	"a"	"l"	"APproc"	2	"AP"	"no"	20	"a"	"blackFace2.bmp"	1200	"black"	2	"+"	1	"a"	"a"	334	"negative"	"garbage"	NA	4.4	5.2
100	1	1	3	1	5	"posRight"	2	"a"	"l"	"APproc"	2	"AP"	"no"	21	"a"	"whiteFace8.bmp"	800	"white"	2	"+"	1	"a"	"a"	300	"negative"	"garbage"	NA	4.4	5.2
100	1	1	3	1	5	"posRight"	2	"a"	"l"	"APproc"	2	"AP"	"no"	22	"l"	"blackFace6.bmp"	1000	"black"	2	"+"	1	"l"	"l"	372	"positive"	"love"	NA	4.4	5.2
100	1	1	3	1	5	"posRight"	2	"a"	"l"	"APproc"	2	"AP"	"no"	23	"a"	"blackFace5.bmp"	1000	"black"	2	"+"	1	"a"	"a"	339	"negative"	"poison"	NA	4.4	5.2
100	1	1	3	1	5	"posRight"	2	"a"	"l"	"APproc"	2	"AP"	"no"	24	"l"	"whiteFace7.bmp"	800	"white"	2	"+"	1	"l"	"l"	354	"positive"	"love"	NA	4.4	5.2
100	1	1	3	1	5	"posRight"	2	"a"	"l"	"APproc"	2	"AP"	"no"	25	"l"	"whiteFace4.bmp"	1200	"white"	2	"+"	1	"l"	"l"	418	"positive"	"smile"	NA	4.4	5.2
100	1	1	3	1	5	"posRight"	2	"a"	"l"	"APproc"	2	"AP"	"no"	26	"l"	"whiteFace1.bmp"	1000	"white"	2	"+"	1	"l"	"l"	385	"positive"	"beauty"	NA	4.4	5.2
100	1	1	3	1	5	"posRight"	2	"a"	"l"	"APproc"	2	"AP"	"no"	27	"l"	"whiteFace3.bmp"	800	"white"	2	"+"	1	"l"	"l"	417	"positive"	"paradise"	NA	4.4	5.2
100	1	1	3	1	5	"posRight"	2	"a"	"l"	"APproc"	2	"AP"	"no"	28	"a"	"blackFace8.bmp"	1200	"black"	1	"+"	0	"a"	"l"	368	"negative"	"poison"	NA	4.4	5.2
100	1	1	3	1	5	"posRight"	2	"a"	"l"	"APproc"	2	"AP"	"no"	29	"a"	"blackFace5.bmp"	800	"black"	2	"+"	1	"a"	"a"	455	"negative"	"garbage"	NA	4.4	5.2
100	1	1	3	1	5	"posRight"	2	"a"	"l"	"APproc"	2	"AP"	"no"	30	"l"	"whiteFace5.bmp"	1200	"white"	2	"+"	1	"l"	"l"	367	"positive"	"smile"	NA	4.4	5.2
100	1	1	3	1	5	"posRight"	2	"a"	"l"	"APproc"	2	"AP"	"no"	31	"a"	"whiteFace2.bmp"	1000	"white"	2	"+"	1	"a"	"a"	422	"negative"	"sewage"	NA	4.4	5.2
100	1	1	3	1	5	"posRight"	2	"a"	"l"	"APproc"	2	"AP"	"no"	32	"l"	"blackFace2.bmp"	1000	"black"	2	"+"	1	"l"	"l"	373	"positive"	"paradise"	NA	4.4	5.2
100	1	1	3	1	5	"posRight"	2	"a"	"l"	"APproc"	2	"AP"	"no"	33	"a"	"blackFace3.bmp"	1200	"black"	2	"+"	1	"a"	"a"	485	"negative"	"vomit"	NA	4.4	5.2
100	1	1	3	1	5	"posRight"	2	"a"	"l"	"APproc"	2	"AP"	"no"	34	"a"	"whiteFace1.bmp"	800	"white"	3	"TOO SLOW"	0	"a"	""	0	"negative"	"vomit"	NA	4.4	5.2
100	1	1	3	1	5	"posRight"	2	"a"	"l"	"APproc"	2	"AP"	"no"	35	"l"	"blackFace7.bmp"	800	"black"	2	"+"	1	"l"	"l"	411	"positive"	"smile"	NA	4.4	5.2
100	1	1	3	1	5	"posRight"	2	"a"	"l"	"APproc"	2	"AP"	"no"	36	"l"	"blackFace5.bmp"	1000	"black"	1	"+"	0	"l"	"a"	370	"positive"	"paradise"	NA	4.4	5.2
100	1	1	3	1	5	"posRight"	2	"a"	"l"	"APproc"	2	"AP"	"no"	37	"l"	"blackFace5.bmp"	1200	"black"	2	"+"	1	"l"	"l"	442	"positive"	"love"	NA	4.4	5.2
100	1	1	3	1	5	"posRight"	2	"a"	"l"	"APproc"	2	"AP"	"no"	38	"a"	"blackFace6.bmp"	1000	"black"	2	"+"	1	"a"	"a"	377	"negative"	"sewage"	NA	4.4	5.2
100	1	1	3	1	5	"posRight"	2	"a"	"l"	"APproc"	2	"AP"	"no"	39	"l"	"whiteFace7.bmp"	1200	"white"	2	"+"	1	"l"	"l"	369	"positive"	"smile"	NA	4.4	5.2
100	1	1	3	1	5	"posRight"	2	"a"	"l"	"APproc"	2	"AP"	"no"	40	"l"	"blackFace2.bmp"	800	"black"	2	"+"	1	"l"	"l"	407	"positive"	"beauty"	NA	4.4	5.2
100	1	1	3	1	5	"posRight"	2	"a"	"l"	"APproc"	2	"AP"	"no"	41	"l"	"whiteFace6.bmp"	800	"white"	2	"+"	1	"l"	"l"	422	"positive"	"love"	NA	4.4	5.2
100	1	1	3	1	5	"posRight"	2	"a"	"l"	"APproc"	2	"AP"	"no"	42	"l"	"blackFace6.bmp"	1200	"black"	2	"+"	1	"l"	"l"	358	"positive"	"smile"	NA	4.4	5.2
100	1	1	3	1	5	"posRight"	2	"a"	"l"	"APproc"	2	"AP"	"no"	43	"l"	"blackFace7.bmp"	1000	"black"	2	"+"	1	"l"	"l"	437	"positive"	"beauty"	NA	4.4	5.2
100	1	1	3	1	5	"posRight"	2	"a"	"l"	"APproc"	2	"AP"	"no"	44	"l"	"blackFace3.bmp"	800	"black"	2	"+"	1	"l"	"l"	317	"positive"	"love"	NA	4.4	5.2
100	1	1	3	1	5	"posRight"	2	"a"	"l"	"APproc"	2	"AP"	"no"	45	"a"	"blackFace7.bmp"	1200	"black"	3	"TOO SLOW"	0	"a"	""	0	"negative"	"garbage"	NA	4.4	5.2
100	1	1	3	1	5	"posRight"	2	"a"	"l"	"APproc"	2	"AP"	"no"	46	"a"	"blackFace1.bmp"	1000	"black"	2	"+"	1	"a"	"a"	219	"negative"	"poison"	NA	4.4	5.2
100	1	1	3	1	5	"posRight"	2	"a"	"l"	"APproc"	2	"AP"	"no"	47	"a"	"whiteFace8.bmp"	1200	"white"	1	"+"	0	"a"	"l"	283	"negative"	"vomit"	NA	4.4	5.2
100	1	1	3	1	5	"posRight"	2	"a"	"l"	"APproc"	2	"AP"	"no"	48	"l"	"whiteFace1.bmp"	1000	"white"	2	"+"	1	"l"	"l"	394	"positive"	"smile"	NA	4.4	5.2
100	1	1	3	1	5	"posRight"	2	"a"	"l"	"APproc"	2	"AP"	"no"	49	"a"	"blackFace1.bmp"	800	"black"	2	"+"	1	"a"	"a"	393	"negative"	"vomit"	NA	4.4	5.2
100	1	1	3	1	5	"posRight"	2	"a"	"l"	"APproc"	2	"AP"	"no"	50	"a"	"blackFace8.bmp"	800	"black"	2	"+"	1	"a"	"a"	377	"negative"	"sewage"	NA	4.4	5.2
100	1	1	3	1	5	"posRight"	2	"a"	"l"	"APproc"	2	"AP"	"no"	51	"l"	"whiteFace8.bmp"	1200	"white"	3	"TOO SLOW"	0	"l"	""	0	"positive"	"paradise"	NA	4.4	5.2
100	1	1	3	1	5	"posRight"	2	"a"	"l"	"APproc"	2	"AP"	"no"	52	"l"	"blackFace7.bmp"	1000	"black"	2	"+"	1	"l"	"l"	424	"positive"	"paradise"	NA	4.4	5.2
100	1	1	3	1	5	"posRight"	2	"a"	"l"	"APproc"	2	"AP"	"no"	53	"a"	"blackFace5.bmp"	1200	"black"	2	"+"	1	"a"	"a"	351	"negative"	"sewage"	NA	4.4	5.2
100	1	1	3	1	5	"posRight"	2	"a"	"l"	"APproc"	2	"AP"	"no"	54	"l"	"blackFace3.bmp"	1000	"black"	2	"+"	1	"l"	"l"	326	"positive"	"paradise"	NA	4.4	5.2
100	1	1	3	1	5	"posRight"	2	"a"	"l"	"APproc"	2	"AP"	"no"	55	"l"	"whiteFace8.bmp"	800	"white"	2	"+"	1	"l"	"l"	414	"positive"	"love"	NA	4.4	5.2
100	1	1	3	1	5	"posRight"	2	"a"	"l"	"APproc"	2	"AP"	"no"	56	"a"	"whiteFace5.bmp"	1200	"white"	2	"+"	1	"a"	"a"	461	"negative"	"vomit"	NA	4.4	5.2
100	1	1	3	1	5	"posRight"	2	"a"	"l"	"APproc"	2	"AP"	"no"	57	"a"	"whiteFace6.bmp"	800	"white"	2	"+"	1	"a"	"a"	413	"negative"	"sewage"	NA	4.4	5.2
100	1	1	3	1	5	"posRight"	2	"a"	"l"	"APproc"	2	"AP"	"no"	58	"l"	"whiteFace5.bmp"	1000	"white"	2	"+"	1	"l"	"l"	443	"positive"	"paradise"	NA	4.4	5.2
100	1	1	3	1	5	"posRight"	2	"a"	"l"	"APproc"	2	"AP"	"no"	59	"a"	"blackFace5.bmp"	1000	"black"	2	"+"	1	"a"	"a"	378	"negative"	"vomit"	NA	4.4	5.2
100	1	1	3	1	5	"posRight"	2	"a"	"l"	"APproc"	2	"AP"	"no"	60	"a"	"blackFace7.bmp"	1200	"black"	3	"TOO SLOW"	0	"a"	""	0	"negative"	"poison"	NA	4.4	5.2
100	1	1	3	1	5	"posRight"	2	"a"	"l"	"APproc"	2	"AP"	"no"	61	"l"	"whiteFace3.bmp"	800	"white"	2	"+"	1	"l"	"l"	457	"positive"	"love"	NA	4.4	5.2
100	1	1	3	1	5	"posRight"	2	"a"	"l"	"APproc"	2	"AP"	"no"	62	"a"	"whiteFace3.bmp"	1000	"white"	2	"+"	1	"a"	"a"	352	"negative"	"vomit"	NA	4.4	5.2
100	1	1	3	1	5	"posRight"	2	"a"	"l"	"APproc"	2	"AP"	"no"	63	"a"	"blackFace2.bmp"	800	"black"	1	"+"	0	"a"	"l"	440	"negative"	"poison"	NA	4.4	5.2
100	1	1	3	1	5	"posRight"	2	"a"	"l"	"APproc"	2	"AP"	"no"	64	"a"	"whiteFace5.bmp"	1200	"white"	3	"TOO SLOW"	0	"a"	""	0	"negative"	"sewage"	NA	4.4	5.2
100	1	1	3	1	5	"posRight"	2	"a"	"l"	"APproc"	2	"AP"	"no"	65	"a"	"blackFace8.bmp"	1200	"black"	2	"+"	1	"a"	"a"	374	"negative"	"vomit"	NA	4.4	5.2
100	1	1	3	1	5	"posRight"	2	"a"	"l"	"APproc"	2	"AP"	"no"	66	"a"	"blackFace4.bmp"	1000	"black"	2	"+"	1	"a"	"a"	333	"negative"	"sewage"	NA	4.4	5.2
100	1	1	3	1	5	"posRight"	2	"a"	"l"	"APproc"	2	"AP"	"no"	67	"l"	"blackFace1.bmp"	800	"black"	2	"+"	1	"l"	"l"	365	"positive"	"smile"	NA	4.4	5.2
100	1	1	3	1	5	"posRight"	2	"a"	"l"	"APproc"	2	"AP"	"no"	68	"a"	"blackFace3.bmp"	800	"black"	2	"+"	1	"a"	"a"	428	"negative"	"sewage"	NA	4.4	5.2
100	1	1	3	1	5	"posRight"	2	"a"	"l"	"APproc"	2	"AP"	"no"	69	"a"	"whiteFace1.bmp"	1000	"white"	2	"+"	1	"a"	"a"	452	"negative"	"poison"	NA	4.4	5.2
100	1	1	3	1	5	"posRight"	2	"a"	"l"	"APproc"	2	"AP"	"no"	70	"l"	"blackFace3.bmp"	1200	"black"	3	"TOO SLOW"	0	"l"	""	0	"positive"	"smile"	NA	4.4	5.2
100	1	1	3	1	5	"posRight"	2	"a"	"l"	"APproc"	2	"AP"	"no"	71	"l"	"whiteFace3.bmp"	1200	"white"	2	"+"	1	"l"	"l"	442	"positive"	"beauty"	NA	4.4	5.2
100	1	1	3	1	5	"posRight"	2	"a"	"l"	"APproc"	2	"AP"	"no"	72	"l"	"blackFace4.bmp"	1000	"black"	2	"+"	1	"l"	"l"	410	"positive"	"love"	NA	4.4	5.2
100	1	1	3	1	5	"posRight"	2	"a"	"l"	"APproc"	2	"AP"	"no"	73	"l"	"whiteFace2.bmp"	800	"white"	1	"+"	0	"l"	"a"	337	"positive"	"love"	NA	4.4	5.2
100	1	1	3	1	5	"posRight"	2	"a"	"l"	"APproc"	2	"AP"	"no"	74	"a"	"whiteFace6.bmp"	800	"white"	2	"+"	1	"a"	"a"	384	"negative"	"garbage"	NA	4.4	5.2
100	1	1	3	1	5	"posRight"	2	"a"	"l"	"APproc"	2	"AP"	"no"	75	"l"	"blackFace6.bmp"	1200	"black"	2	"+"	1	"l"	"l"	272	"positive"	"paradise"	NA	4.4	5.2
100	1	1	3	1	5	"posRight"	2	"a"	"l"	"APproc"	2	"AP"	"no"	76	"a"	"whiteFace8.bmp"	1000	"white"	1	"+"	0	"a"	"l"	390	"negative"	"poison"	NA	4.4	5.2
100	1	1	3	1	5	"posRight"	2	"a"	"l"	"APproc"	2	"AP"	"no"	77	"l"	"blackFace8.bmp"	1000	"black"	2	"+"	1	"l"	"l"	414	"positive"	"smile"	NA	4.4	5.2
100	1	1	3	1	5	"posRight"	2	"a"	"l"	"APproc"	2	"AP"	"no"	78	"a"	"blackFace7.bmp"	1200	"black"	2	"+"	1	"a"	"a"	437	"negative"	"vomit"	NA	4.4	5.2
100	1	1	3	1	5	"posRight"	2	"a"	"l"	"APproc"	2	"AP"	"no"	79	"l"	"whiteFace3.bmp"	800	"white"	2	"+"	1	"l"	"l"	372	"positive"	"smile"	NA	4.4	5.2
100	1	1	3	1	5	"posRight"	2	"a"	"l"	"APproc"	2	"AP"	"no"	80	"a"	"blackFace4.bmp"	1000	"black"	3	"TOO SLOW"	0	"a"	""	0	"negative"	"vomit"	NA	4.4	5.2
100	1	1	3	1	5	"posRight"	2	"a"	"l"	"APproc"	2	"AP"	"no"	81	"a"	"whiteFace7.bmp"	1200	"white"	2	"+"	1	"a"	"a"	323	"negative"	"poison"	NA	4.4	5.2
100	1	1	3	1	5	"posRight"	2	"a"	"l"	"APproc"	2	"AP"	"no"	82	"a"	"whiteFace3.bmp"	800	"white"	1	"+"	0	"a"	"l"	243	"negative"	"poison"	NA	4.4	5.2
100	1	1	3	1	5	"posRight"	2	"a"	"l"	"APproc"	2	"AP"	"no"	83	"l"	"whiteFace6.bmp"	800	"white"	1	"+"	0	"l"	"a"	498	"positive"	"paradise"	NA	4.4	5.2
100	1	1	3	1	5	"posRight"	2	"a"	"l"	"APproc"	2	"AP"	"no"	84	"a"	"whiteFace5.bmp"	1200	"white"	2	"+"	1	"a"	"a"	393	"negative"	"poison"	NA	4.4	5.2
100	1	1	3	1	5	"posRight"	2	"a"	"l"	"APproc"	2	"AP"	"no"	85	"l"	"blackFace2.bmp"	1000	"black"	2	"+"	1	"l"	"l"	393	"positive"	"smile"	NA	4.4	5.2
100	1	1	3	1	5	"posRight"	2	"a"	"l"	"APproc"	2	"AP"	"no"	86	"l"	"whiteFace1.bmp"	1000	"white"	1	"+"	0	"l"	"a"	360	"positive"	"love"	NA	4.4	5.2
100	1	1	3	1	5	"posRight"	2	"a"	"l"	"APproc"	2	"AP"	"no"	87	"a"	"blackFace4.bmp"	1200	"black"	2	"+"	1	"a"	"a"	416	"negative"	"poison"	NA	4.4	5.2
100	1	1	3	1	5	"posRight"	2	"a"	"l"	"APproc"	2	"AP"	"no"	88	"a"	"blackFace2.bmp"	800	"black"	1	"+"	0	"a"	"l"	295	"negative"	"vomit"	NA	4.4	5.2
100	1	1	3	1	5	"posRight"	2	"a"	"l"	"APproc"	2	"AP"	"no"	89	"l"	"whiteFace6.bmp"	800	"white"	2	"+"	1	"l"	"l"	366	"positive"	"smile"	NA	4.4	5.2
100	1	1	3	1	5	"posRight"	2	"a"	"l"	"APproc"	2	"AP"	"no"	90	"l"	"whiteFace6.bmp"	1000	"white"	2	"+"	1	"l"	"l"	374	"positive"	"beauty"	NA	4.4	5.2
100	1	1	3	1	5	"posRight"	2	"a"	"l"	"APproc"	2	"AP"	"no"	91	"l"	"blackFace3.bmp"	1200	"black"	2	"+"	1	"l"	"l"	389	"positive"	"beauty"	NA	4.4	5.2
100	1	1	3	1	5	"posRight"	2	"a"	"l"	"APproc"	2	"AP"	"no"	92	"a"	"blackFace4.bmp"	1000	"black"	2	"+"	1	"a"	"a"	460	"negative"	"garbage"	NA	4.4	5.2
100	1	1	3	1	5	"posRight"	2	"a"	"l"	"APproc"	2	"AP"	"no"	93	"l"	"whiteFace4.bmp"	800	"white"	2	"+"	1	"l"	"l"	331	"positive"	"love"	NA	4.4	5.2
100	1	1	3	1	5	"posRight"	2	"a"	"l"	"APproc"	2	"AP"	"no"	94	"a"	"blackFace1.bmp"	1200	"black"	2	"+"	1	"a"	"a"	466	"negative"	"garbage"	NA	4.4	5.2
100	1	1	3	1	5	"posRight"	2	"a"	"l"	"APproc"	2	"AP"	"no"	95	"a"	"blackFace6.bmp"	1000	"black"	1	"+"	0	"a"	"l"	362	"negative"	"poison"	NA	4.4	5.2
100	1	1	3	1	5	"posRight"	2	"a"	"l"	"APproc"	2	"AP"	"no"	96	"a"	"whiteFace5.bmp"	1200	"white"	1	"+"	0	"a"	"l"	321	"negative"	"garbage"	NA	4.4	5.2
100	1	1	3	1	5	"posRight"	2	"a"	"l"	"APproc"	2	"AP"	"no"	97	"a"	"whiteFace8.bmp"	800	"white"	3	"TOO SLOW"	0	"a"	""	0	"negative"	"sewage"	NA	4.4	5.2
100	1	1	3	1	5	"posRight"	2	"a"	"l"	"APproc"	2	"AP"	"no"	98	"l"	"blackFace4.bmp"	1200	"black"	2	"+"	1	"l"	"l"	423	"positive"	"smile"	NA	4.4	5.2
100	1	1	3	1	5	"posRight"	2	"a"	"l"	"APproc"	2	"AP"	"no"	99	"l"	"blackFace8.bmp"	1000	"black"	1	"+"	0	"l"	"a"	398	"positive"	"paradise"	NA	4.4	5.2
100	1	1	3	1	5	"posRight"	2	"a"	"l"	"APproc"	2	"AP"	"no"	100	"l"	"whiteFace8.bmp"	800	"white"	2	"+"	1	"l"	"l"	366	"positive"	"smile"	NA	4.4	5.2
100	1	1	3	1	5	"posRight"	2	"a"	"l"	"APproc"	2	"AP"	"no"	101	"l"	"whiteFace2.bmp"	1200	"white"	2	"+"	1	"l"	"l"	293	"positive"	"smile"	NA	4.4	5.2
100	1	1	3	1	5	"posRight"	2	"a"	"l"	"APproc"	2	"AP"	"no"	102	"a"	"blackFace6.bmp"	800	"black"	2	"+"	1	"a"	"a"	364	"negative"	"garbage"	NA	4.4	5.2
100	1	1	3	1	5	"posRight"	2	"a"	"l"	"APproc"	2	"AP"	"no"	103	"a"	"blackFace6.bmp"	1000	"black"	2	"+"	1	"a"	"a"	372	"negative"	"vomit"	NA	4.4	5.2
100	1	1	3	1	5	"posRight"	2	"a"	"l"	"APproc"	2	"AP"	"no"	104	"a"	"blackFace8.bmp"	1200	"black"	2	"+"	1	"a"	"a"	450	"negative"	"garbage"	NA	4.4	5.2
100	1	1	3	1	5	"posRight"	2	"a"	"l"	"APproc"	2	"AP"	"no"	105	"a"	"whiteFace7.bmp"	1000	"white"	2	"+"	1	"a"	"a"	426	"negative"	"sewage"	NA	4.4	5.2
100	1	1	3	1	5	"posRight"	2	"a"	"l"	"APproc"	2	"AP"	"no"	106	"l"	"whiteFace4.bmp"	800	"white"	2	"+"	1	"l"	"l"	449	"positive"	"beauty"	NA	4.4	5.2
100	1	1	3	1	5	"posRight"	2	"a"	"l"	"APproc"	2	"AP"	"no"	107	"l"	"blackFace5.bmp"	1200	"black"	1	"+"	0	"l"	"a"	376	"positive"	"beauty"	NA	4.4	5.2
100	1	1	3	1	5	"posRight"	2	"a"	"l"	"APproc"	2	"AP"	"no"	108	"a"	"blackFace2.bmp"	800	"black"	2	"+"	1	"a"	"a"	336	"negative"	"sewage"	NA	4.4	5.2
100	1	1	3	1	5	"posRight"	2	"a"	"l"	"APproc"	2	"AP"	"no"	109	"a"	"whiteFace6.bmp"	1000	"white"	1	"+"	0	"a"	"l"	247	"negative"	"poison"	NA	4.4	5.2
100	1	1	3	1	5	"posRight"	2	"a"	"l"	"APproc"	2	"AP"	"no"	110	"l"	"blackFace6.bmp"	800	"black"	2	"+"	1	"l"	"l"	367	"positive"	"beauty"	NA	4.4	5.2
100	1	1	3	1	5	"posRight"	2	"a"	"l"	"APproc"	2	"AP"	"no"	111	"a"	"whiteFace4.bmp"	1000	"white"	2	"+"	1	"a"	"a"	462	"negative"	"poison"	NA	4.4	5.2
100	1	1	3	1	5	"posRight"	2	"a"	"l"	"APproc"	2	"AP"	"no"	112	"l"	"blackFace1.bmp"	1200	"black"	2	"+"	1	"l"	"l"	381	"positive"	"love"	NA	4.4	5.2
100	1	1	3	1	5	"posRight"	2	"a"	"l"	"APproc"	2	"AP"	"no"	113	"l"	"whiteFace2.bmp"	1000	"white"	1	"+"	0	"l"	"a"	485	"positive"	"paradise"	NA	4.4	5.2
100	1	1	3	1	5	"posRight"	2	"a"	"l"	"APproc"	2	"AP"	"no"	114	"l"	"blackFace8.bmp"	800	"black"	2	"+"	1	"l"	"l"	436	"positive"	"love"	NA	4.4	5.2
100	1	1	3	1	5	"posRight"	2	"a"	"l"	"APproc"	2	"AP"	"no"	115	"l"	"whiteFace5.bmp"	1200	"white"	2	"+"	1	"l"	"l"	363	"positive"	"love"	NA	4.4	5.2
100	1	1	3	1	5	"posRight"	2	"a"	"l"	"APproc"	2	"AP"	"no"	116	"l"	"whiteFace4.bmp"	800	"white"	2	"+"	1	"l"	"l"	362	"positive"	"paradise"	NA	4.4	5.2
100	1	1	3	1	5	"posRight"	2	"a"	"l"	"APproc"	2	"AP"	"no"	117	"a"	"whiteFace3.bmp"	1200	"white"	3	"TOO SLOW"	0	"a"	""	0	"negative"	"sewage"	NA	4.4	5.2
100	1	1	3	1	5	"posRight"	2	"a"	"l"	"APproc"	2	"AP"	"no"	118	"a"	"blackFace3.bmp"	1000	"black"	1	"+"	0	"a"	"l"	488	"negative"	"poison"	NA	4.4	5.2
100	1	1	3	1	5	"posRight"	2	"a"	"l"	"APproc"	2	"AP"	"no"	119	"a"	"blackFace7.bmp"	800	"black"	1	"+"	0	"a"	"l"	336	"negative"	"sewage"	NA	4.4	5.2
100	1	1	3	1	5	"posRight"	2	"a"	"l"	"APproc"	2	"AP"	"no"	120	"a"	"whiteFace6.bmp"	1000	"white"	2	"+"	1	"a"	"a"	367	"negative"	"vomit"	NA	4.4	5.2
100	1	1	3	1	5	"posRight"	2	"a"	"l"	"APproc"	2	"AP"	"no"	121	"l"	"blackFace2.bmp"	1200	"black"	1	"+"	0	"l"	"a"	398	"positive"	"love"	NA	4.4	5.2
100	1	1	3	1	5	"posRight"	2	"a"	"l"	"APproc"	2	"AP"	"no"	122	"l"	"whiteFace7.bmp"	1000	"white"	2	"+"	1	"l"	"l"	406	"positive"	"beauty"	NA	4.4	5.2
100	1	1	3	1	5	"posRight"	2	"a"	"l"	"APproc"	2	"AP"	"no"	123	"l"	"blackFace7.bmp"	1200	"black"	2	"+"	1	"l"	"l"	372	"positive"	"love"	NA	4.4	5.2
100	1	1	3	1	5	"posRight"	2	"a"	"l"	"APproc"	2	"AP"	"no"	124	"l"	"whiteFace5.bmp"	800	"white"	2	"+"	1	"l"	"l"	404	"positive"	"beauty"	NA	4.4	5.2
100	1	1	3	1	5	"posRight"	2	"a"	"l"	"APproc"	2	"AP"	"no"	125	"a"	"whiteFace7.bmp"	1000	"white"	2	"+"	1	"a"	"a"	491	"negative"	"vomit"	NA	4.4	5.2
100	1	1	3	1	5	"posRight"	2	"a"	"l"	"APproc"	2	"AP"	"no"	126	"a"	"whiteFace2.bmp"	1200	"white"	3	"TOO SLOW"	0	"a"	""	0	"negative"	"garbage"	NA	4.4	5.2
100	1	1	3	1	5	"posRight"	2	"a"	"l"	"APproc"	2	"AP"	"no"	127	"l"	"blackFace4.bmp"	800	"black"	2	"+"	1	"l"	"l"	385	"positive"	"paradise"	NA	4.4	5.2
100	1	1	3	1	5	"posRight"	2	"a"	"l"	"APproc"	2	"AP"	"no"	128	"a"	"whiteFace2.bmp"	800	"white"	2	"+"	1	"a"	"a"	377	"negative"	"vomit"	NA	4.4	5.2
100	1	1	3	1	5	"posRight"	2	"a"	"l"	"APproc"	2	"AP"	"no"	129	"l"	"whiteFace3.bmp"	1200	"white"	2	"+"	1	"l"	"l"	344	"positive"	"smile"	NA	4.4	5.2
100	1	1	3	1	5	"posRight"	2	"a"	"l"	"APproc"	2	"AP"	"no"	130	"a"	"whiteFace1.bmp"	1000	"white"	2	"+"	1	"a"	"a"	367	"negative"	"sewage"	NA	4.4	5.2
100	1	1	3	1	5	"posRight"	2	"a"	"l"	"APproc"	2	"AP"	"no"	131	"a"	"blackFace2.bmp"	1200	"black"	2	"+"	1	"a"	"a"	351	"negative"	"garbage"	NA	4.4	5.2
100	1	1	3	1	5	"posRight"	2	"a"	"l"	"APproc"	2	"AP"	"no"	132	"l"	"blackFace1.bmp"	1000	"black"	2	"+"	1	"l"	"l"	310	"positive"	"love"	NA	4.4	5.2
100	1	1	3	1	5	"posRight"	2	"a"	"l"	"APproc"	2	"AP"	"no"	133	"l"	"whiteFace5.bmp"	800	"white"	2	"+"	1	"l"	"l"	301	"positive"	"smile"	NA	4.4	5.2
100	1	1	3	1	5	"posRight"	2	"a"	"l"	"APproc"	2	"AP"	"no"	134	"a"	"blackFace4.bmp"	800	"black"	2	"+"	1	"a"	"a"	389	"negative"	"poison"	NA	4.4	5.2
100	1	1	3	1	5	"posRight"	2	"a"	"l"	"APproc"	2	"AP"	"no"	135	"l"	"whiteFace3.bmp"	1000	"white"	2	"+"	1	"l"	"l"	348	"positive"	"love"	NA	4.4	5.2
100	1	1	3	1	5	"posRight"	2	"a"	"l"	"APproc"	2	"AP"	"no"	136	"a"	"whiteFace4.bmp"	1200	"white"	1	"+"	0	"a"	"l"	380	"negative"	"sewage"	NA	4.4	5.2
100	1	1	3	1	5	"posRight"	2	"a"	"l"	"APproc"	2	"AP"	"no"	137	"a"	"blackFace3.bmp"	1000	"black"	2	"+"	1	"a"	"a"	363	"negative"	"garbage"	NA	4.4	5.2
100	1	1	3	1	5	"posRight"	2	"a"	"l"	"APproc"	2	"AP"	"no"	138	"l"	"blackFace6.bmp"	800	"black"	1	"+"	0	"l"	"a"	362	"positive"	"love"	NA	4.4	5.2
100	1	1	3	1	5	"posRight"	2	"a"	"l"	"APproc"	2	"AP"	"no"	139	"a"	"blackFace7.bmp"	1200	"black"	2	"+"	1	"a"	"a"	330	"negative"	"poison"	NA	4.4	5.2
100	1	1	3	1	5	"posRight"	2	"a"	"l"	"APproc"	2	"AP"	"no"	140	"l"	"blackFace4.bmp"	1200	"black"	1	"+"	0	"l"	"a"	320	"positive"	"smile"	NA	4.4	5.2
100	1	1	3	1	5	"posRight"	2	"a"	"l"	"APproc"	2	"AP"	"no"	141	"l"	"whiteFace6.bmp"	800	"white"	2	"+"	1	"l"	"l"	328	"positive"	"love"	NA	4.4	5.2
100	1	1	3	1	5	"posRight"	2	"a"	"l"	"APproc"	2	"AP"	"no"	142	"l"	"blackFace1.bmp"	1000	"black"	1	"+"	0	"l"	"a"	303	"positive"	"paradise"	NA	4.4	5.2
100	1	1	3	1	5	"posRight"	2	"a"	"l"	"APproc"	2	"AP"	"no"	143	"a"	"blackFace5.bmp"	800	"black"	1	"+"	0	"a"	"l"	398	"negative"	"sewage"	NA	4.4	5.2
100	1	1	3	1	5	"posRight"	2	"a"	"l"	"APproc"	2	"AP"	"no"	144	"a"	"whiteFace2.bmp"	1000	"white"	3	"TOO SLOW"	0	"a"	""	0	"negative"	"garbage"	NA	4.4	5.2
100	1	1	3	1	5	"posRight"	2	"a"	"l"	"APproc"	2	"AP"	"no"	145	"a"	"blackFace8.bmp"	1200	"black"	2	"+"	1	"a"	"a"	388	"negative"	"garbage"	NA	4.4	5.2
100	1	1	3	1	5	"posRight"	2	"a"	"l"	"APproc"	2	"AP"	"no"	146	"l"	"blackFace5.bmp"	800	"black"	1	"+"	0	"l"	"a"	348	"positive"	"paradise"	NA	4.4	5.2
100	1	1	3	1	5	"posRight"	2	"a"	"l"	"APproc"	2	"AP"	"no"	147	"a"	"whiteFace8.bmp"	1000	"white"	2	"+"	1	"a"	"a"	419	"negative"	"sewage"	NA	4.4	5.2
100	1	1	3	1	5	"posRight"	2	"a"	"l"	"APproc"	2	"AP"	"no"	148	"a"	"blackFace5.bmp"	1200	"black"	1	"+"	0	"a"	"l"	379	"negative"	"vomit"	NA	4.4	5.2
100	1	1	3	1	5	"posRight"	2	"a"	"l"	"APproc"	2	"AP"	"no"	149	"a"	"blackFace6.bmp"	1000	"black"	2	"+"	1	"a"	"a"	338	"negative"	"garbage"	NA	4.4	5.2
100	1	1	3	1	5	"posRight"	2	"a"	"l"	"APproc"	2	"AP"	"no"	150	"a"	"whiteFace8.bmp"	800	"white"	1	"+"	0	"a"	"l"	337	"negative"	"poison"	NA	4.4	5.2
100	1	1	3	1	5	"posRight"	2	"a"	"l"	"APproc"	2	"AP"	"no"	151	"a"	"whiteFace3.bmp"	1200	"white"	3	"TOO SLOW"	0	"a"	""	0	"negative"	"poison"	NA	4.4	5.2
100	1	1	3	1	5	"posRight"	2	"a"	"l"	"APproc"	2	"AP"	"no"	152	"l"	"blackFace3.bmp"	1200	"black"	2	"+"	1	"l"	"l"	376	"positive"	"love"	NA	4.4	5.2
100	1	1	3	1	5	"posRight"	2	"a"	"l"	"APproc"	2	"AP"	"no"	153	"l"	"whiteFace3.bmp"	800	"white"	1	"+"	0	"l"	"a"	264	"positive"	"paradise"	NA	4.4	5.2
100	1	1	3	1	5	"posRight"	2	"a"	"l"	"APproc"	2	"AP"	"no"	154	"a"	"blackFace2.bmp"	1000	"black"	2	"+"	1	"a"	"a"	463	"negative"	"poison"	NA	4.4	5.2
100	1	1	3	1	5	"posRight"	2	"a"	"l"	"APproc"	2	"AP"	"no"	155	"a"	"whiteFace5.bmp"	1000	"white"	1	"+"	0	"a"	"l"	366	"negative"	"poison"	NA	4.4	5.2
100	1	1	3	1	5	"posRight"	2	"a"	"l"	"APproc"	2	"AP"	"no"	156	"l"	"whiteFace8.bmp"	1200	"white"	2	"+"	1	"l"	"l"	398	"positive"	"beauty"	NA	4.4	5.2
100	1	1	3	1	5	"posRight"	2	"a"	"l"	"APproc"	2	"AP"	"no"	157	"l"	"blackFace5.bmp"	800	"black"	2	"+"	1	"l"	"l"	405	"positive"	"smile"	NA	4.4	5.2
100	1	1	3	1	5	"posRight"	2	"a"	"l"	"APproc"	2	"AP"	"no"	158	"a"	"blackFace6.bmp"	1000	"black"	2	"+"	1	"a"	"a"	460	"negative"	"vomit"	NA	4.4	5.2
100	1	1	3	1	5	"posRight"	2	"a"	"l"	"APproc"	2	"AP"	"no"	159	"a"	"whiteFace1.bmp"	1200	"white"	2	"+"	1	"a"	"a"	379	"negative"	"vomit"	NA	4.4	5.2
100	1	1	3	1	5	"posRight"	2	"a"	"l"	"APproc"	2	"AP"	"no"	160	"a"	"whiteFace7.bmp"	800	"white"	1	"+"	0	"a"	"l"	402	"negative"	"garbage"	NA	4.4	5.2
100	1	1	3	1	5	"posRight"	2	"a"	"l"	"APproc"	2	"AP"	"no"	161	"a"	"whiteFace1.bmp"	800	"white"	2	"+"	1	"a"	"a"	338	"negative"	"garbage"	NA	4.4	5.2
100	1	1	3	1	5	"posRight"	2	"a"	"l"	"APproc"	2	"AP"	"no"	162	"l"	"whiteFace2.bmp"	1200	"white"	2	"+"	1	"l"	"l"	433	"positive"	"love"	NA	4.4	5.2
100	1	1	3	1	5	"posRight"	2	"a"	"l"	"APproc"	2	"AP"	"no"	163	"a"	"whiteFace5.bmp"	1000	"white"	2	"+"	1	"a"	"a"	336	"negative"	"garbage"	NA	4.4	5.2
100	1	1	3	1	5	"posRight"	2	"a"	"l"	"APproc"	2	"AP"	"no"	164	"l"	"blackFace1.bmp"	1200	"black"	1	"+"	0	"l"	"a"	336	"positive"	"beauty"	NA	4.4	5.2
100	1	1	3	1	5	"posRight"	2	"a"	"l"	"APproc"	2	"AP"	"no"	165	"l"	"whiteFace5.bmp"	800	"white"	2	"+"	1	"l"	"l"	431	"positive"	"love"	NA	4.4	5.2
100	1	1	3	1	5	"posRight"	2	"a"	"l"	"APproc"	2	"AP"	"no"	166	"a"	"whiteFace6.bmp"	1000	"white"	2	"+"	1	"a"	"a"	423	"negative"	"sewage"	NA	4.4	5.2
100	1	1	3	1	5	"posRight"	2	"a"	"l"	"APproc"	2	"AP"	"no"	167	"a"	"blackFace1.bmp"	1000	"black"	3	"TOO SLOW"	0	"a"	""	0	"negative"	"garbage"	NA	4.4	5.2
100	1	1	3	1	5	"posRight"	2	"a"	"l"	"APproc"	2	"AP"	"no"	168	"a"	"blackFace6.bmp"	1200	"black"	2	"+"	1	"a"	"a"	445	"negative"	"poison"	NA	4.4	5.2
100	1	1	3	1	5	"posRight"	2	"a"	"l"	"APproc"	2	"AP"	"no"	169	"l"	"blackFace4.bmp"	800	"black"	1	"+"	0	"l"	"a"	420	"positive"	"paradise"	NA	4.4	5.2
100	1	1	3	1	5	"posRight"	2	"a"	"l"	"APproc"	2	"AP"	"no"	170	"a"	"blackFace2.bmp"	800	"black"	2	"+"	1	"a"	"a"	428	"negative"	"sewage"	NA	4.4	5.2
100	1	1	3	1	5	"posRight"	2	"a"	"l"	"APproc"	2	"AP"	"no"	171	"a"	"blackFace8.bmp"	1200	"black"	1	"+"	0	"a"	"l"	323	"negative"	"poison"	NA	4.4	5.2
100	1	1	3	1	5	"posRight"	2	"a"	"l"	"APproc"	2	"AP"	"no"	172	"l"	"whiteFace4.bmp"	1000	"white"	1	"+"	0	"l"	"a"	434	"positive"	"beauty"	NA	4.4	5.2
100	1	1	3	1	5	"posRight"	2	"a"	"l"	"APproc"	2	"AP"	"no"	173	"l"	"whiteFace6.bmp"	1200	"white"	1	"+"	0	"l"	"a"	362	"positive"	"smile"	NA	4.4	5.2
100	1	1	3	1	5	"posRight"	2	"a"	"l"	"APproc"	2	"AP"	"no"	174	"l"	"whiteFace6.bmp"	1000	"white"	2	"+"	1	"l"	"l"	473	"positive"	"beauty"	NA	4.4	5.2
100	1	1	3	1	5	"posRight"	2	"a"	"l"	"APproc"	2	"AP"	"no"	175	"a"	"blackFace4.bmp"	800	"black"	3	"TOO SLOW"	0	"a"	""	0	"negative"	"vomit"	NA	4.4	5.2
100	1	1	3	1	5	"posRight"	2	"a"	"l"	"APproc"	2	"AP"	"no"	176	"l"	"whiteFace8.bmp"	800	"white"	2	"+"	1	"l"	"l"	374	"positive"	"love"	NA	4.4	5.2
100	1	1	3	1	5	"posRight"	2	"a"	"l"	"APproc"	2	"AP"	"no"	177	"l"	"whiteFace7.bmp"	1200	"white"	2	"+"	1	"l"	"l"	334	"positive"	"love"	NA	4.4	5.2
100	1	1	3	1	5	"posRight"	2	"a"	"l"	"APproc"	2	"AP"	"no"	178	"a"	"blackFace3.bmp"	1000	"black"	2	"+"	1	"a"	"a"	445	"negative"	"poison"	NA	4.4	5.2
100	1	1	3	1	5	"posRight"	2	"a"	"l"	"APproc"	2	"AP"	"no"	179	"l"	"blackFace3.bmp"	800	"black"	1	"+"	0	"l"	"a"	364	"positive"	"paradise"	NA	4.4	5.2
100	1	1	3	1	5	"posRight"	2	"a"	"l"	"APproc"	2	"AP"	"no"	180	"l"	"blackFace2.bmp"	1000	"black"	2	"+"	1	"l"	"l"	340	"positive"	"beauty"	NA	4.4	5.2
100	1	1	3	1	5	"posRight"	2	"a"	"l"	"APproc"	2	"AP"	"no"	181	"a"	"whiteFace2.bmp"	1200	"white"	2	"+"	1	"a"	"a"	315	"negative"	"vomit"	NA	4.4	5.2
100	1	1	3	1	5	"posRight"	2	"a"	"l"	"APproc"	2	"AP"	"no"	182	"l"	"whiteFace1.bmp"	800	"white"	2	"+"	1	"l"	"l"	339	"positive"	"love"	NA	4.4	5.2
100	1	1	3	1	5	"posRight"	2	"a"	"l"	"APproc"	2	"AP"	"no"	183	"l"	"blackFace8.bmp"	1000	"black"	2	"+"	1	"l"	"l"	378	"positive"	"paradise"	NA	4.4	5.2
100	1	1	3	1	5	"posRight"	2	"a"	"l"	"APproc"	2	"AP"	"no"	184	"a"	"whiteFace3.bmp"	1200	"white"	1	"+"	0	"a"	"l"	353	"negative"	"sewage"	NA	4.4	5.2
100	1	1	3	1	5	"posRight"	2	"a"	"l"	"APproc"	2	"AP"	"no"	185	"l"	"blackFace7.bmp"	800	"black"	2	"+"	1	"l"	"l"	345	"positive"	"love"	NA	4.4	5.2
100	1	1	3	1	5	"posRight"	2	"a"	"l"	"APproc"	2	"AP"	"no"	186	"l"	"whiteFace7.bmp"	1000	"white"	2	"+"	1	"l"	"l"	360	"positive"	"paradise"	NA	4.4	5.2
100	1	1	3	1	5	"posRight"	2	"a"	"l"	"APproc"	2	"AP"	"no"	187	"l"	"blackFace2.bmp"	1200	"black"	2	"+"	1	"l"	"l"	335	"positive"	"paradise"	NA	4.4	5.2
100	1	1	3	1	5	"posRight"	2	"a"	"l"	"APproc"	2	"AP"	"no"	188	"a"	"whiteFace1.bmp"	1200	"white"	2	"+"	1	"a"	"a"	431	"negative"	"poison"	NA	4.4	5.2
100	1	1	3	1	5	"posRight"	2	"a"	"l"	"APproc"	2	"AP"	"no"	189	"l"	"whiteFace3.bmp"	1000	"white"	2	"+"	1	"l"	"l"	406	"positive"	"beauty"	NA	4.4	5.2
100	1	1	3	1	5	"posRight"	2	"a"	"l"	"APproc"	2	"AP"	"no"	190	"l"	"blackFace3.bmp"	800	"black"	2	"+"	1	"l"	"l"	398	"positive"	"beauty"	NA	4.4	5.2
100	1	1	3	1	5	"posRight"	2	"a"	"l"	"APproc"	2	"AP"	"no"	191	"a"	"whiteFace4.bmp"	1000	"white"	2	"+"	1	"a"	"a"	421	"negative"	"garbage"	NA	4.4	5.2
100	1	1	3	1	5	"posRight"	2	"a"	"l"	"APproc"	2	"AP"	"no"	192	"l"	"blackFace7.bmp"	1200	"black"	2	"+"	1	"l"	"l"	404	"positive"	"smile"	NA	4.4	5.2
101	1	2	2	2	5	"posLeft"	2	"l"	"a"	"APproc"	2	"AP"	"no"	1	"l"	"blackFace2.bmp"	1200	"black"	2	"+"	1	"l"	"l"	348	"negative"	"vomit"	NA	NA	NA
101	1	2	2	2	5	"posLeft"	2	"l"	"a"	"APproc"	2	"AP"	"no"	2	"l"	"whiteFace7.bmp"	1000	"white"	2	"+"	1	"l"	"l"	451	"negative"	"garbage"	NA	NA	NA
101	1	2	2	2	5	"posLeft"	2	"l"	"a"	"APproc"	2	"AP"	"no"	3	"a"	"blackFace7.bmp"	800	"black"	2	"+"	1	"a"	"a"	322	"positive"	"love"	NA	NA	NA
101	1	2	2	2	5	"posLeft"	2	"l"	"a"	"APproc"	2	"AP"	"no"	4	"l"	"whiteFace4.bmp"	1200	"white"	2	"+"	1	"l"	"l"	282	"negative"	"garbage"	NA	NA	NA
101	1	2	2	2	5	"posLeft"	2	"l"	"a"	"APproc"	2	"AP"	"no"	5	"l"	"blackFace4.bmp"	1200	"black"	2	"+"	1	"l"	"l"	329	"negative"	"garbage"	NA	NA	NA
101	1	2	2	2	5	"posLeft"	2	"l"	"a"	"APproc"	2	"AP"	"no"	6	"a"	"whiteFace5.bmp"	800	"white"	2	"+"	1	"a"	"a"	280	"positive"	"love"	NA	NA	NA
101	1	2	2	2	5	"posLeft"	2	"l"	"a"	"APproc"	2	"AP"	"no"	7	"a"	"blackFace1.bmp"	1000	"black"	1	"+"	0	"a"	"l"	256	"positive"	"smile"	NA	NA	NA
101	1	2	2	2	5	"posLeft"	2	"l"	"a"	"APproc"	2	"AP"	"no"	8	"a"	"whiteFace6.bmp"	800	"white"	1	"+"	0	"a"	"l"	391	"positive"	"paradise"	NA	NA	NA
101	1	2	2	2	5	"posLeft"	2	"l"	"a"	"APproc"	2	"AP"	"no"	9	"a"	"blackFace6.bmp"	1200	"black"	1	"+"	0	"a"	"l"	175	"positive"	"smile"	NA	NA	NA
101	1	2	2	2	5	"posLeft"	2	"l"	"a"	"APproc"	2	"AP"	"no"	10	"a"	"blackFace4.bmp"	1000	"black"	2	"+"	1	"a"	"a"	223	"positive"	"love"	NA	NA	NA
101	1	2	2	2	5	"posLeft"	2	"l"	"a"	"APproc"	2	"AP"	"no"	11	"l"	"blackFace6.bmp"	1200	"black"	2	"+"	1	"l"	"l"	358	"negative"	"poison"	NA	NA	NA
101	1	2	2	2	5	"posLeft"	2	"l"	"a"	"APproc"	2	"AP"	"no"	12	"a"	"blackFace8.bmp"	1000	"black"	1	"+"	0	"a"	"l"	253	"positive"	"love"	NA	NA	NA
101	1	2	2	2	5	"posLeft"	2	"l"	"a"	"APproc"	2	"AP"	"no"	13	"l"	"whiteFace6.bmp"	800	"white"	1	"+"	0	"l"	"a"	189	"negative"	"sewage"	NA	NA	NA
101	1	2	2	2	5	"posLeft"	2	"l"	"a"	"APproc"	2	"AP"	"no"	14	"l"	"whiteFace2.bmp"	1000	"white"	2	"+"	1	"l"	"l"	388	"negative"	"garbage"	NA	NA	NA
101	1	2	2	2	5	"posLeft"	2	"l"	"a"	"APproc"	2	"AP"	"no"	15	"a"	"blackFace6.bmp"	1200	"black"	2	"+"	1	"a"	"a"	291	"positive"	"paradise"	NA	NA	NA
101	1	2	2	2	5	"posLeft"	2	"l"	"a"	"APproc"	2	"AP"	"no"	16	"a"	"blackFace7.bmp"	800	"black"	1	"+"	0	"a"	"l"	267	"positive"	"beauty"	NA	NA	NA
101	1	2	2	2	5	"posLeft"	2	"l"	"a"	"APproc"	2	"AP"	"no"	17	"l"	"blackFace7.bmp"	1200	"black"	2	"+"	1	"l"	"l"	314	"negative"	"poison"	NA	NA	NA
101	1	2	2	2	5	"posLeft"	2	"l"	"a"	"APproc"	2	"AP"	"no"	18	"l"	"whiteFace3.bmp"	800	"white"	1	"+"	0	"l"	"a"	161	"negative"	"vomit"	NA	NA	NA
101	1	2	2	2	5	"posLeft"	2	"l"	"a"	"APproc"	2	"AP"	"no"	19	"l"	"whiteFace8.bmp"	1000	"white"	2	"+"	1	"l"	"l"	394	"negative"	"poison"	NA	NA	NA
101	1	2	2	2	5	"posLeft"	2	"l"	"a"	"APproc"	2	"AP"	"no"	20	"a"	"whiteFace7.bmp"	800	"white"	2	"+"	1	"a"	"a"	378	"positive"	"beauty"	NA	NA	NA
101	1	2	2	2	5	"posLeft"	2	"l"	"a"	"APproc"	2	"AP"	"no"	21	"a"	"blackFace6.bmp"	1000	"black"	2	"+"	1	"a"	"a"	217	"positive"	"beauty"	NA	NA	NA
101	1	2	2	2	5	"posLeft"	2	"l"	"a"	"APproc"	2	"AP"	"no"	22	"a"	"whiteFace8.bmp"	1200	"white"	1	"+"	0	"a"	"l"	360	"positive"	"love"	NA	NA	NA
101	1	2	2	2	5	"posLeft"	2	"l"	"a"	"APproc"	2	"AP"	"no"	23	"a"	"blackFace2.bmp"	1200	"black"	1	"+"	0	"a"	"l"	143	"positive"	"love"	NA	NA	NA
101	1	2	2	2	5	"posLeft"	2	"l"	"a"	"APproc"	2	"AP"	"no"	24	"a"	"whiteFace8.bmp"	1000	"white"	2	"+"	1	"a"	"a"	416	"positive"	"beauty"	NA	NA	NA
101	1	2	2	2	5	"posLeft"	2	"l"	"a"	"APproc"	2	"AP"	"no"	25	"l"	"blackFace8.bmp"	800	"black"	2	"+"	1	"l"	"l"	351	"negative"	"garbage"	NA	NA	NA
101	1	2	2	2	5	"posLeft"	2	"l"	"a"	"APproc"	2	"AP"	"no"	26	"l"	"blackFace4.bmp"	1200	"black"	2	"+"	1	"l"	"l"	359	"negative"	"vomit"	NA	NA	NA
101	1	2	2	2	5	"posLeft"	2	"l"	"a"	"APproc"	2	"AP"	"no"	27	"a"	"whiteFace2.bmp"	1000	"white"	2	"+"	1	"a"	"a"	206	"positive"	"love"	NA	NA	NA
101	1	2	2	2	5	"posLeft"	2	"l"	"a"	"APproc"	2	"AP"	"no"	28	"l"	"whiteFace6.bmp"	800	"white"	1	"+"	0	"l"	"a"	357	"negative"	"garbage"	NA	NA	NA
101	1	2	2	2	5	"posLeft"	2	"l"	"a"	"APproc"	2	"AP"	"no"	29	"l"	"whiteFace7.bmp"	1200	"white"	1	"+"	0	"l"	"a"	333	"negative"	"vomit"	NA	NA	NA
101	1	2	2	2	5	"posLeft"	2	"l"	"a"	"APproc"	2	"AP"	"no"	30	"l"	"blackFace5.bmp"	1000	"black"	2	"+"	1	"l"	"l"	308	"negative"	"vomit"	NA	NA	NA
101	1	2	2	2	5	"posLeft"	2	"l"	"a"	"APproc"	2	"AP"	"no"	31	"l"	"whiteFace3.bmp"	800	"white"	2	"+"	1	"l"	"l"	468	"negative"	"garbage"	NA	NA	NA
101	1	2	2	2	5	"posLeft"	2	"l"	"a"	"APproc"	2	"AP"	"no"	32	"l"	"blackFace1.bmp"	1200	"black"	1	"+"	0	"l"	"a"	331	"negative"	"poison"	NA	NA	NA
101	1	2	2	2	5	"posLeft"	2	"l"	"a"	"APproc"	2	"AP"	"no"	33	"l"	"whiteFace7.bmp"	800	"white"	2	"+"	1	"l"	"l"	306	"negative"	"poison"	NA	NA	NA
101	1	2	2	2	5	"posLeft"	2	"l"	"a"	"APproc"	2	"AP"	"no"	34	"l"	"blackFace2.bmp"	1000	"black"	1	"+"	0	"l"	"a"	322	"negative"	"sewage"	NA	NA	NA
101	1	2	2	2	5	"posLeft"	2	"l"	"a"	"APproc"	2	"AP"	"no"	35	"a"	"blackFace8.bmp"	1000	"black"	1	"+"	0	"a"	"l"	177	"positive"	"beauty"	NA	NA	NA
101	1	2	2	2	5	"posLeft"	2	"l"	"a"	"APproc"	2	"AP"	"no"	36	"a"	"whiteFace6.bmp"	1200	"white"	2	"+"	1	"a"	"a"	473	"positive"	"love"	NA	NA	NA
101	1	2	2	2	5	"posLeft"	2	"l"	"a"	"APproc"	2	"AP"	"no"	37	"l"	"whiteFace8.bmp"	800	"white"	1	"+"	0	"l"	"a"	424	"negative"	"sewage"	NA	NA	NA
101	1	2	2	2	5	"posLeft"	2	"l"	"a"	"APproc"	2	"AP"	"no"	38	"l"	"blackFace2.bmp"	1000	"black"	2	"+"	1	"l"	"l"	328	"negative"	"garbage"	NA	NA	NA
101	1	2	2	2	5	"posLeft"	2	"l"	"a"	"APproc"	2	"AP"	"no"	39	"l"	"blackFace1.bmp"	800	"black"	3	"TOO SLOW"	0	"l"	""	0	"negative"	"vomit"	NA	NA	NA
101	1	2	2	2	5	"posLeft"	2	"l"	"a"	"APproc"	2	"AP"	"no"	40	"l"	"whiteFace2.bmp"	1200	"white"	2	"+"	1	"l"	"l"	359	"negative"	"sewage"	NA	NA	NA
101	1	2	2	2	5	"posLeft"	2	"l"	"a"	"APproc"	2	"AP"	"no"	41	"a"	"whiteFace2.bmp"	800	"white"	2	"+"	1	"a"	"a"	382	"positive"	"smile"	NA	NA	NA
101	1	2	2	2	5	"posLeft"	2	"l"	"a"	"APproc"	2	"AP"	"no"	42	"a"	"whiteFace8.bmp"	1200	"white"	2	"+"	1	"a"	"a"	341	"positive"	"smile"	NA	NA	NA
101	1	2	2	2	5	"posLeft"	2	"l"	"a"	"APproc"	2	"AP"	"no"	43	"a"	"whiteFace7.bmp"	1000	"white"	2	"+"	1	"a"	"a"	437	"positive"	"smile"	NA	NA	NA
101	1	2	2	2	5	"posLeft"	2	"l"	"a"	"APproc"	2	"AP"	"no"	44	"l"	"blackFace2.bmp"	1200	"black"	2	"+"	1	"l"	"l"	356	"negative"	"poison"	NA	NA	NA
101	1	2	2	2	5	"posLeft"	2	"l"	"a"	"APproc"	2	"AP"	"no"	45	"a"	"blackFace1.bmp"	1000	"black"	1	"+"	0	"a"	"l"	411	"positive"	"love"	NA	NA	NA
101	1	2	2	2	5	"posLeft"	2	"l"	"a"	"APproc"	2	"AP"	"no"	46	"a"	"whiteFace6.bmp"	800	"white"	2	"+"	1	"a"	"a"	435	"positive"	"smile"	NA	NA	NA
101	1	2	2	2	5	"posLeft"	2	"l"	"a"	"APproc"	2	"AP"	"no"	47	"l"	"whiteFace1.bmp"	1000	"white"	3	"TOO SLOW"	0	"l"	""	0	"negative"	"garbage"	NA	NA	NA
101	1	2	2	2	5	"posLeft"	2	"l"	"a"	"APproc"	2	"AP"	"no"	48	"l"	"whiteFace5.bmp"	1200	"white"	2	"+"	1	"l"	"l"	369	"negative"	"poison"	NA	NA	NA
101	1	2	2	2	5	"posLeft"	2	"l"	"a"	"APproc"	2	"AP"	"no"	49	"a"	"blackFace3.bmp"	800	"black"	1	"+"	0	"a"	"l"	449	"positive"	"smile"	NA	NA	NA
101	1	2	2	2	5	"posLeft"	2	"l"	"a"	"APproc"	2	"AP"	"no"	50	"l"	"whiteFace8.bmp"	1200	"white"	2	"+"	1	"l"	"l"	384	"negative"	"vomit"	NA	NA	NA
101	1	2	2	2	5	"posLeft"	2	"l"	"a"	"APproc"	2	"AP"	"no"	51	"a"	"blackFace4.bmp"	1000	"black"	2	"+"	1	"a"	"a"	424	"positive"	"paradise"	NA	NA	NA
101	1	2	2	2	5	"posLeft"	2	"l"	"a"	"APproc"	2	"AP"	"no"	52	"l"	"blackFace4.bmp"	800	"black"	2	"+"	1	"l"	"l"	446	"negative"	"poison"	NA	NA	NA
101	1	2	2	2	5	"posLeft"	2	"l"	"a"	"APproc"	2	"AP"	"no"	53	"a"	"whiteFace5.bmp"	1200	"white"	2	"+"	1	"a"	"a"	342	"positive"	"smile"	NA	NA	NA
101	1	2	2	2	5	"posLeft"	2	"l"	"a"	"APproc"	2	"AP"	"no"	54	"l"	"blackFace8.bmp"	800	"black"	2	"+"	1	"l"	"l"	341	"negative"	"sewage"	NA	NA	NA
101	1	2	2	2	5	"posLeft"	2	"l"	"a"	"APproc"	2	"AP"	"no"	55	"a"	"blackFace5.bmp"	1000	"black"	1	"+"	0	"a"	"l"	388	"positive"	"beauty"	NA	NA	NA
101	1	2	2	2	5	"posLeft"	2	"l"	"a"	"APproc"	2	"AP"	"no"	56	"a"	"blackFace8.bmp"	1200	"black"	2	"+"	1	"a"	"a"	451	"positive"	"paradise"	NA	NA	NA
101	1	2	2	2	5	"posLeft"	2	"l"	"a"	"APproc"	2	"AP"	"no"	57	"a"	"whiteFace6.bmp"	1000	"white"	2	"+"	1	"a"	"a"	283	"positive"	"beauty"	NA	NA	NA
101	1	2	2	2	5	"posLeft"	2	"l"	"a"	"APproc"	2	"AP"	"no"	58	"a"	"whiteFace4.bmp"	800	"white"	2	"+"	1	"a"	"a"	330	"positive"	"smile"	NA	NA	NA
101	1	2	2	2	5	"posLeft"	2	"l"	"a"	"APproc"	2	"AP"	"no"	59	"l"	"blackFace3.bmp"	1000	"black"	2	"+"	1	"l"	"l"	337	"negative"	"sewage"	NA	NA	NA
101	1	2	2	2	5	"posLeft"	2	"l"	"a"	"APproc"	2	"AP"	"no"	60	"a"	"whiteFace3.bmp"	1200	"white"	2	"+"	1	"a"	"a"	353	"positive"	"beauty"	NA	NA	NA
101	1	2	2	2	5	"posLeft"	2	"l"	"a"	"APproc"	2	"AP"	"no"	61	"l"	"blackFace3.bmp"	800	"black"	2	"+"	1	"l"	"l"	480	"negative"	"vomit"	NA	NA	NA
101	1	2	2	2	5	"posLeft"	2	"l"	"a"	"APproc"	2	"AP"	"no"	62	"l"	"whiteFace6.bmp"	1000	"white"	2	"+"	1	"l"	"l"	360	"negative"	"poison"	NA	NA	NA
101	1	2	2	2	5	"posLeft"	2	"l"	"a"	"APproc"	2	"AP"	"no"	63	"a"	"blackFace7.bmp"	1200	"black"	2	"+"	1	"a"	"a"	343	"positive"	"smile"	NA	NA	NA
101	1	2	2	2	5	"posLeft"	2	"l"	"a"	"APproc"	2	"AP"	"no"	64	"a"	"whiteFace3.bmp"	800	"white"	2	"+"	1	"a"	"a"	398	"positive"	"smile"	NA	NA	NA
101	1	2	2	2	5	"posLeft"	2	"l"	"a"	"APproc"	2	"AP"	"no"	65	"a"	"blackFace1.bmp"	1000	"black"	1	"+"	0	"a"	"l"	390	"positive"	"beauty"	NA	NA	NA
101	1	2	2	2	5	"posLeft"	2	"l"	"a"	"APproc"	2	"AP"	"no"	66	"l"	"whiteFace3.bmp"	1200	"white"	1	"+"	0	"l"	"a"	301	"negative"	"sewage"	NA	NA	NA
101	1	2	2	2	5	"posLeft"	2	"l"	"a"	"APproc"	2	"AP"	"no"	67	"l"	"whiteFace4.bmp"	800	"white"	1	"+"	0	"l"	"a"	348	"negative"	"vomit"	NA	NA	NA
101	1	2	2	2	5	"posLeft"	2	"l"	"a"	"APproc"	2	"AP"	"no"	68	"a"	"blackFace5.bmp"	1000	"black"	3	"TOO SLOW"	0	"a"	""	0	"positive"	"paradise"	NA	NA	NA
101	1	2	2	2	5	"posLeft"	2	"l"	"a"	"APproc"	2	"AP"	"no"	69	"a"	"whiteFace1.bmp"	800	"white"	2	"+"	1	"a"	"a"	435	"positive"	"love"	NA	NA	NA
101	1	2	2	2	5	"posLeft"	2	"l"	"a"	"APproc"	2	"AP"	"no"	70	"a"	"blackFace8.bmp"	1200	"black"	1	"+"	0	"a"	"l"	298	"positive"	"smile"	NA	NA	NA
101	1	2	2	2	5	"posLeft"	2	"l"	"a"	"APproc"	2	"AP"	"no"	71	"a"	"whiteFace7.bmp"	800	"white"	2	"+"	1	"a"	"a"	378	"positive"	"paradise"	NA	NA	NA
101	1	2	2	2	5	"posLeft"	2	"l"	"a"	"APproc"	2	"AP"	"no"	72	"l"	"blackFace6.bmp"	1200	"black"	2	"+"	1	"l"	"l"	449	"negative"	"garbage"	NA	NA	NA
101	1	2	2	2	5	"posLeft"	2	"l"	"a"	"APproc"	2	"AP"	"no"	73	"a"	"whiteFace5.bmp"	1000	"white"	2	"+"	1	"a"	"a"	481	"positive"	"beauty"	NA	NA	NA
101	1	2	2	2	5	"posLeft"	2	"l"	"a"	"APproc"	2	"AP"	"no"	74	"a"	"whiteFace1.bmp"	1200	"white"	2	"+"	1	"a"	"a"	304	"positive"	"smile"	NA	NA	NA
101	1	2	2	2	5	"posLeft"	2	"l"	"a"	"APproc"	2	"AP"	"no"	75	"a"	"blackFace5.bmp"	1000	"black"	2	"+"	1	"a"	"a"	383	"positive"	"love"	NA	NA	NA
101	1	2	2	2	5	"posLeft"	2	"l"	"a"	"APproc"	2	"AP"	"no"	76	"l"	"blackFace6.bmp"	800	"black"	1	"+"	0	"l"	"a"	407	"negative"	"vomit"	NA	NA	NA
101	1	2	2	2	5	"posLeft"	2	"l"	"a"	"APproc"	2	"AP"	"no"	77	"a"	"whiteFace1.bmp"	1000	"white"	2	"+"	1	"a"	"a"	374	"positive"	"paradise"	NA	NA	NA
101	1	2	2	2	5	"posLeft"	2	"l"	"a"	"APproc"	2	"AP"	"no"	78	"l"	"blackFace1.bmp"	800	"black"	2	"+"	1	"l"	"l"	485	"negative"	"garbage"	NA	NA	NA
101	1	2	2	2	5	"posLeft"	2	"l"	"a"	"APproc"	2	"AP"	"no"	79	"l"	"blackFace8.bmp"	1200	"black"	2	"+"	1	"l"	"l"	357	"negative"	"poison"	NA	NA	NA
101	1	2	2	2	5	"posLeft"	2	"l"	"a"	"APproc"	2	"AP"	"no"	80	"l"	"whiteFace2.bmp"	800	"white"	1	"+"	0	"l"	"a"	372	"negative"	"vomit"	NA	NA	NA
101	1	2	2	2	5	"posLeft"	2	"l"	"a"	"APproc"	2	"AP"	"no"	81	"l"	"blackFace7.bmp"	1200	"black"	2	"+"	1	"l"	"l"	380	"negative"	"garbage"	NA	NA	NA
101	1	2	2	2	5	"posLeft"	2	"l"	"a"	"APproc"	2	"AP"	"no"	82	"a"	"whiteFace4.bmp"	1000	"white"	2	"+"	1	"a"	"a"	483	"positive"	"paradise"	NA	NA	NA
101	1	2	2	2	5	"posLeft"	2	"l"	"a"	"APproc"	2	"AP"	"no"	83	"l"	"whiteFace3.bmp"	1200	"white"	3	"TOO SLOW"	0	"l"	""	0	"negative"	"poison"	NA	NA	NA
101	1	2	2	2	5	"posLeft"	2	"l"	"a"	"APproc"	2	"AP"	"no"	84	"a"	"blackFace2.bmp"	800	"black"	2	"+"	1	"a"	"a"	465	"positive"	"smile"	NA	NA	NA
101	1	2	2	2	5	"posLeft"	2	"l"	"a"	"APproc"	2	"AP"	"no"	85	"a"	"whiteFace2.bmp"	1000	"white"	3	"TOO SLOW"	0	"a"	""	0	"positive"	"beauty"	NA	NA	NA
101	1	2	2	2	5	"posLeft"	2	"l"	"a"	"APproc"	2	"AP"	"no"	86	"l"	"blackFace4.bmp"	1000	"black"	2	"+"	1	"l"	"l"	406	"negative"	"sewage"	NA	NA	NA
101	1	2	2	2	5	"posLeft"	2	"l"	"a"	"APproc"	2	"AP"	"no"	87	"l"	"whiteFace1.bmp"	800	"white"	1	"+"	0	"l"	"a"	357	"negative"	"poison"	NA	NA	NA
101	1	2	2	2	5	"posLeft"	2	"l"	"a"	"APproc"	2	"AP"	"no"	88	"l"	"whiteFace2.bmp"	1200	"white"	1	"+"	0	"l"	"a"	445	"negative"	"poison"	NA	NA	NA
101	1	2	2	2	5	"posLeft"	2	"l"	"a"	"APproc"	2	"AP"	"no"	89	"l"	"blackFace5.bmp"	1000	"black"	2	"+"	1	"l"	"l"	292	"negative"	"garbage"	NA	NA	NA
101	1	2	2	2	5	"posLeft"	2	"l"	"a"	"APproc"	2	"AP"	"no"	90	"l"	"blackFace5.bmp"	1200	"black"	2	"+"	1	"l"	"l"	275	"negative"	"poison"	NA	NA	NA
101	1	2	2	2	5	"posLeft"	2	"l"	"a"	"APproc"	2	"AP"	"no"	91	"a"	"blackFace7.bmp"	800	"black"	2	"+"	1	"a"	"a"	491	"positive"	"paradise"	NA	NA	NA
101	1	2	2	2	5	"posLeft"	2	"l"	"a"	"APproc"	2	"AP"	"no"	92	"a"	"whiteFace3.bmp"	800	"white"	2	"+"	1	"a"	"a"	298	"positive"	"paradise"	NA	NA	NA
101	1	2	2	2	5	"posLeft"	2	"l"	"a"	"APproc"	2	"AP"	"no"	93	"l"	"blackFace8.bmp"	1000	"black"	2	"+"	1	"l"	"l"	482	"negative"	"vomit"	NA	NA	NA
101	1	2	2	2	5	"posLeft"	2	"l"	"a"	"APproc"	2	"AP"	"no"	94	"l"	"blackFace7.bmp"	1200	"black"	2	"+"	1	"l"	"l"	369	"negative"	"vomit"	NA	NA	NA
101	1	2	2	2	5	"posLeft"	2	"l"	"a"	"APproc"	2	"AP"	"no"	95	"l"	"whiteFace8.bmp"	1000	"white"	2	"+"	1	"l"	"l"	464	"negative"	"garbage"	NA	NA	NA
101	1	2	2	2	5	"posLeft"	2	"l"	"a"	"APproc"	2	"AP"	"no"	96	"a"	"whiteFace8.bmp"	800	"white"	1	"+"	0	"a"	"l"	352	"positive"	"paradise"	NA	NA	NA
101	1	2	2	2	5	"posLeft"	2	"l"	"a"	"APproc"	2	"AP"	"no"	97	"l"	"whiteFace5.bmp"	1200	"white"	3	"TOO SLOW"	0	"l"	""	0	"negative"	"sewage"	NA	NA	NA
101	1	2	2	2	5	"posLeft"	2	"l"	"a"	"APproc"	2	"AP"	"no"	98	"l"	"blackFace5.bmp"	1200	"black"	2	"+"	1	"l"	"l"	308	"negative"	"sewage"	NA	NA	NA
101	1	2	2	2	5	"posLeft"	2	"l"	"a"	"APproc"	2	"AP"	"no"	99	"l"	"blackFace3.bmp"	1000	"black"	2	"+"	1	"l"	"l"	347	"negative"	"poison"	NA	NA	NA
101	1	2	2	2	5	"posLeft"	2	"l"	"a"	"APproc"	2	"AP"	"no"	100	"a"	"whiteFace4.bmp"	800	"white"	2	"+"	1	"a"	"a"	315	"positive"	"beauty"	NA	NA	NA
101	1	2	2	2	5	"posLeft"	2	"l"	"a"	"APproc"	2	"AP"	"no"	101	"l"	"whiteFace7.bmp"	800	"white"	2	"+"	1	"l"	"l"	418	"negative"	"sewage"	NA	NA	NA
101	1	2	2	2	5	"posLeft"	2	"l"	"a"	"APproc"	2	"AP"	"no"	102	"a"	"blackFace2.bmp"	1000	"black"	1	"+"	0	"a"	"l"	306	"positive"	"beauty"	NA	NA	NA
101	1	2	2	2	5	"posLeft"	2	"l"	"a"	"APproc"	2	"AP"	"no"	103	"a"	"blackFace3.bmp"	1200	"black"	1	"+"	0	"a"	"l"	297	"positive"	"love"	NA	NA	NA
101	1	2	2	2	5	"posLeft"	2	"l"	"a"	"APproc"	2	"AP"	"no"	104	"a"	"blackFace3.bmp"	1200	"black"	1	"+"	0	"a"	"l"	400	"positive"	"beauty"	NA	NA	NA
101	1	2	2	2	5	"posLeft"	2	"l"	"a"	"APproc"	2	"AP"	"no"	105	"l"	"whiteFace6.bmp"	1000	"white"	3	"TOO SLOW"	0	"l"	""	0	"negative"	"vomit"	NA	NA	NA
101	1	2	2	2	5	"posLeft"	2	"l"	"a"	"APproc"	2	"AP"	"no"	106	"a"	"whiteFace5.bmp"	800	"white"	2	"+"	1	"a"	"a"	447	"positive"	"paradise"	NA	NA	NA
101	1	2	2	2	5	"posLeft"	2	"l"	"a"	"APproc"	2	"AP"	"no"	107	"a"	"whiteFace1.bmp"	1200	"white"	2	"+"	1	"a"	"a"	421	"positive"	"beauty"	NA	NA	NA
101	1	2	2	2	5	"posLeft"	2	"l"	"a"	"APproc"	2	"AP"	"no"	108	"a"	"blackFace6.bmp"	1000	"black"	2	"+"	1	"a"	"a"	429	"positive"	"love"	NA	NA	NA
101	1	2	2	2	5	"posLeft"	2	"l"	"a"	"APproc"	2	"AP"	"no"	109	"l"	"whiteFace1.bmp"	800	"white"	2	"+"	1	"l"	"l"	484	"negative"	"sewage"	NA	NA	NA
101	1	2	2	2	5	"posLeft"	2	"l"	"a"	"APproc"	2	"AP"	"no"	110	"a"	"whiteFace2.bmp"	1000	"white"	3	"TOO SLOW"	0	"a"	""	0	"positive"	"paradise"	NA	NA	NA
101	1	2	2	2	5	"posLeft"	2	"l"	"a"	"APproc"	2	"AP"	"no"	111	"l"	"whiteFace5.bmp"	800	"white"	1	"+"	0	"l"	"a"	258	"negative"	"vomit"	NA	NA	NA
101	1	2	2	2	5	"posLeft"	2	"l"	"a"	"APproc"	2	"AP"	"no"	112	"l"	"whiteFace5.bmp"	1200	"white"	3	"TOO SLOW"	0	"l"	""	0	"negative"	"garbage"	NA	NA	NA
101	1	2	2	2	5	"posLeft"	2	"l"	"a"	"APproc"	2	"AP"	"no"	113	"a"	"blackFace1.bmp"	1000	"black"	2	"+"	1	"a"	"a"	416	"positive"	"paradise"	NA	NA	NA
101	1	2	2	2	5	"posLeft"	2	"l"	"a"	"APproc"	2	"AP"	"no"	114	"l"	"blackFace7.bmp"	1200	"black"	2	"+"	1	"l"	"l"	368	"negative"	"sewage"	NA	NA	NA
101	1	2	2	2	5	"posLeft"	2	"l"	"a"	"APproc"	2	"AP"	"no"	115	"l"	"blackFace6.bmp"	800	"black"	1	"+"	0	"l"	"a"	415	"negative"	"sewage"	NA	NA	NA
101	1	2	2	2	5	"posLeft"	2	"l"	"a"	"APproc"	2	"AP"	"no"	116	"a"	"whiteFace3.bmp"	1000	"white"	2	"+"	1	"a"	"a"	334	"positive"	"love"	NA	NA	NA
101	1	2	2	2	5	"posLeft"	2	"l"	"a"	"APproc"	2	"AP"	"no"	117	"l"	"whiteFace1.bmp"	1200	"white"	2	"+"	1	"l"	"l"	390	"negative"	"vomit"	NA	NA	NA
101	1	2	2	2	5	"posLeft"	2	"l"	"a"	"APproc"	2	"AP"	"no"	118	"a"	"blackFace3.bmp"	800	"black"	2	"+"	1	"a"	"a"	381	"positive"	"paradise"	NA	NA	NA
101	1	2	2	2	5	"posLeft"	2	"l"	"a"	"APproc"	2	"AP"	"no"	119	"a"	"blackFace5.bmp"	1000	"black"	2	"+"	1	"a"	"a"	420	"positive"	"smile"	NA	NA	NA
101	1	2	2	2	5	"posLeft"	2	"l"	"a"	"APproc"	2	"AP"	"no"	120	"a"	"whiteFace4.bmp"	1200	"white"	2	"+"	1	"a"	"a"	348	"positive"	"love"	NA	NA	NA
101	1	2	2	2	5	"posLeft"	2	"l"	"a"	"APproc"	2	"AP"	"no"	121	"l"	"blackFace1.bmp"	800	"black"	1	"+"	0	"l"	"a"	299	"negative"	"sewage"	NA	NA	NA
101	1	2	2	2	5	"posLeft"	2	"l"	"a"	"APproc"	2	"AP"	"no"	122	"a"	"blackFace2.bmp"	1200	"black"	2	"+"	1	"a"	"a"	474	"positive"	"paradise"	NA	NA	NA
101	1	2	2	2	5	"posLeft"	2	"l"	"a"	"APproc"	2	"AP"	"no"	123	"l"	"whiteFace4.bmp"	1000	"white"	1	"+"	0	"l"	"a"	282	"negative"	"poison"	NA	NA	NA
101	1	2	2	2	5	"posLeft"	2	"l"	"a"	"APproc"	2	"AP"	"no"	124	"a"	"whiteFace7.bmp"	800	"white"	2	"+"	1	"a"	"a"	433	"positive"	"love"	NA	NA	NA
