"Subject"	"Session"	"DemoAge.RESP"	"DemoEthnicity.RESP"	"DemoGender.RESP"	"DemoRace.RESP"	"responseMappingVal"	"Block"	"negResponse"	"posResponse"	"Procedure.Block."	"Trial"	"blockName"	"Practice.Trial."	"SubTrial"	"CorrectResponse"	"facePictureFile"	"ITIDuration"	"PrimeType"	"responseAccData"	"rtFeedbackText"	"TargetAP.ACC"	"TargetAP.CRESP"	"TargetAP.RESP"	"TargetAP.RT"	"TargetType"	"targetWord"
1	1	1	3	2	5	"posRight"	2	"a"	"l"	"APproc"	1	"practiceAP"	"yes"	1	"l"	"whiteFace8.bmp"	"1200"	"white"	"3"	"TOO SLOW"	"0"	"l"	""	"0"	"positive"	"love"
1	1	1	3	2	5	"posRight"	2	"a"	"l"	"APproc"	1	"practiceAP"	"yes"	2	"a"	"whiteFace8.bmp"	"1000"	"white"	"1"	"+"	"0"	"a"	"l"	"162"	"negative"	"sewage"
1	1	1	3	2	5	"posRight"	2	"a"	"l"	"APproc"	1	"practiceAP"	"yes"	3	"l"	"blackFace8.bmp"	"1200"	"black"	"1"	"+"	"0"	"l"	"a"	"275"	"positive"	"love"
1	1	1	3	2	5	"posRight"	2	"a"	"l"	"APproc"	1	"practiceAP"	"yes"	4	"a"	"blackFace8.bmp"	"800"	"black"	"3"	"TOO SLOW"	"0"	"a"	""	"0"	"negative"	"sewage"
1	1	1	3	2	5	"posRight"	2	"a"	"l"	"APproc"	1	"practiceAP"	"yes"	5	"l"	"blackFace3.bmp"	"1000"	"black"	"3"	"TOO SLOW"	"0"	"l"	""	"0"	"positive"	"smile"
1	1	1	3	2	5	"posRight"	2	"a"	"l"	"APproc"	1	"practiceAP"	"yes"	6	"l"	"whiteFace3.bmp"	"800"	"white"	"1"	"+"	"0"	"l"	"a"	"328"	"positive"	"beauty"
1	1	1	3	2	5	"posRight"	2	"a"	"l"	"APproc"	1	"practiceAP"	"yes"	7	"a"	"blackFace1.bmp"	"1200"	"black"	"1"	"+"	"0"	"a"	"l"	"263"	"negative"	"vomit"
1	1	1	3	2	5	"posRight"	2	"a"	"l"	"APproc"	1	"practiceAP"	"yes"	8	"l"	"whiteFace4.bmp"	"1000"	"white"	"2"	"+"	"1"	"l"	"l"	"271"	"positive"	"paradise"
1	1	1	3	2	5	"posRight"	2	"a"	"l"	"APproc"	1	"practiceAP"	"yes"	9	"l"	"blackFace7.bmp"	"1200"	"black"	"2"	"+"	"1"	"l"	"l"	"334"	"positive"	"beauty"
1	1	1	3	2	5	"posRight"	2	"a"	"l"	"APproc"	1	"practiceAP"	"yes"	10	"a"	"blackFace2.bmp"	"800"	"black"	"2"	"+"	"1"	"a"	"a"	"374"	"negative"	"garbage"
1	1	1	3	2	5	"posRight"	2	"a"	"l"	"APproc"	1	"practiceAP"	"yes"	11	"a"	"whiteFace3.bmp"	"1000"	"white"	"2"	"+"	"1"	"a"	"a"	"325"	"negative"	"vomit"
1	1	1	3	2	5	"posRight"	2	"a"	"l"	"APproc"	1	"practiceAP"	"yes"	12	"l"	"whiteFace8.bmp"	"1200"	"white"	"2"	"+"	"1"	"l"	"l"	"268"	"positive"	"paradise"
1	1	1	3	2	5	"posRight"	2	"a"	"l"	"APproc"	1	"practiceAP"	"yes"	13	"a"	"blackFace3.bmp"	"800"	"black"	"1"	"+"	"0"	"a"	"l"	"284"	"negative"	"vomit"
1	1	1	3	2	5	"posRight"	2	"a"	"l"	"APproc"	1	"practiceAP"	"yes"	14	"a"	"whiteFace5.bmp"	"1000"	"white"	"2"	"+"	"1"	"a"	"a"	"347"	"negative"	"poison"
1	1	1	3	2	5	"posRight"	2	"a"	"l"	"APproc"	1	"practiceAP"	"yes"	15	"l"	"blackFace2.bmp"	"1000"	"black"	"1"	"+"	"0"	"l"	"a"	"298"	"positive"	"love"
1	1	1	3	2	5	"posRight"	2	"a"	"l"	"APproc"	1	"practiceAP"	"yes"	16	"a"	"whiteFace6.bmp"	"800"	"white"	"1"	"+"	"0"	"a"	"l"	"346"	"negative"	"sewage"
1	1	1	3	2	5	"posRight"	2	"a"	"l"	"APproc"	2	"AP"	"no"	1	"l"	"blackFace2.bmp"	"1200"	"black"	"1"	"+"	"0"	"l"	"a"	"274"	"positive"	"paradise"
1	1	1	3	2	5	"posRight"	2	"a"	"l"	"APproc"	2	"AP"	"no"	2	"a"	"blackFace2.bmp"	"1200"	"black"	"2"	"+"	"1"	"a"	"a"	"449"	"negative"	"vomit"
1	1	1	3	2	5	"posRight"	2	"a"	"l"	"APproc"	2	"AP"	"no"	3	"a"	"blackFace5.bmp"	"800"	"black"	"1"	"+"	"0"	"a"	"l"	"377"	"negative"	"garbage"
1	1	1	3	2	5	"posRight"	2	"a"	"l"	"APproc"	2	"AP"	"no"	4	"a"	"whiteFace3.bmp"	"1000"	"white"	"3"	"TOO SLOW"	"0"	"a"	""	"0"	"negative"	"garbage"
1	1	1	3	2	5	"posRight"	2	"a"	"l"	"APproc"	2	"AP"	"no"	5	"l"	"whiteFace6.bmp"	"800"	"white"	"2"	"+"	"1"	"l"	"l"	"287"	"positive"	"beauty"
1	1	1	3	2	5	"posRight"	2	"a"	"l"	"APproc"	2	"AP"	"no"	6	"a"	"whiteFace6.bmp"	"1000"	"white"	"2"	"+"	"1"	"a"	"a"	"294"	"negative"	"sewage"
1	1	1	3	2	5	"posRight"	2	"a"	"l"	"APproc"	2	"AP"	"no"	7	"l"	"blackFace1.bmp"	"1200"	"black"	"2"	"+"	"1"	"l"	"l"	"245"	"positive"	"love"
1	1	1	3	2	5	"posRight"	2	"a"	"l"	"APproc"	2	"AP"	"no"	8	"l"	"whiteFace7.bmp"	"1200"	"white"	"1"	"+"	"0"	"l"	"a"	"316"	"positive"	"smile"
1	1	1	3	2	5	"posRight"	2	"a"	"l"	"APproc"	2	"AP"	"no"	9	"a"	"blackFace5.bmp"	"800"	"black"	"1"	"+"	"0"	"a"	"l"	"276"	"negative"	"vomit"
1	1	1	3	2	5	"posRight"	2	"a"	"l"	"APproc"	2	"AP"	"no"	10	"l"	"blackFace6.bmp"	"1000"	"black"	"2"	"+"	"1"	"l"	"l"	"299"	"positive"	"smile"
1	1	1	3	2	5	"posRight"	2	"a"	"l"	"APproc"	2	"AP"	"no"	11	"a"	"whiteFace7.bmp"	"1200"	"white"	"2"	"+"	"1"	"a"	"a"	"226"	"negative"	"garbage"
1	1	1	3	2	5	"posRight"	2	"a"	"l"	"APproc"	2	"AP"	"no"	12	"a"	"blackFace8.bmp"	"1000"	"black"	"1"	"+"	"0"	"a"	"l"	"242"	"negative"	"garbage"
1	1	1	3	2	5	"posRight"	2	"a"	"l"	"APproc"	2	"AP"	"no"	13	"l"	"blackFace2.bmp"	"800"	"black"	"1"	"+"	"0"	"l"	"a"	"337"	"positive"	"beauty"
1	1	1	3	2	5	"posRight"	2	"a"	"l"	"APproc"	2	"AP"	"no"	14	"a"	"whiteFace5.bmp"	"1200"	"white"	"1"	"+"	"0"	"a"	"l"	"257"	"negative"	"vomit"
1	1	1	3	2	5	"posRight"	2	"a"	"l"	"APproc"	2	"AP"	"no"	15	"l"	"whiteFace3.bmp"	"1000"	"white"	"2"	"+"	"1"	"l"	"l"	"216"	"positive"	"smile"
1	1	1	3	2	5	"posRight"	2	"a"	"l"	"APproc"	2	"AP"	"no"	16	"l"	"blackFace6.bmp"	"800"	"black"	"1"	"+"	"0"	"l"	"a"	"295"	"positive"	"love"
1	1	1	3	2	5	"posRight"	2	"a"	"l"	"APproc"	2	"AP"	"no"	17	"a"	"blackFace4.bmp"	"1000"	"black"	"3"	"TOO SLOW"	"0"	"a"	""	"0"	"negative"	"garbage"
1	1	1	3	2	5	"posRight"	2	"a"	"l"	"APproc"	2	"AP"	"no"	18	"a"	"blackFace3.bmp"	"800"	"black"	"1"	"+"	"0"	"a"	"l"	"222"	"negative"	"vomit"
1	1	1	3	2	5	"posRight"	2	"a"	"l"	"APproc"	2	"AP"	"no"	19	"l"	"whiteFace4.bmp"	"1200"	"white"	"2"	"+"	"1"	"l"	"l"	"277"	"positive"	"beauty"
1	1	1	3	2	5	"posRight"	2	"a"	"l"	"APproc"	2	"AP"	"no"	20	"a"	"whiteFace2.bmp"	"1200"	"white"	"1"	"+"	"0"	"a"	"l"	"253"	"negative"	"garbage"
1	1	1	3	2	5	"posRight"	2	"a"	"l"	"APproc"	2	"AP"	"no"	21	"a"	"whiteFace2.bmp"	"800"	"white"	"3"	"TOO SLOW"	"0"	"a"	""	"0"	"negative"	"sewage"
1	1	1	3	2	5	"posRight"	2	"a"	"l"	"APproc"	2	"AP"	"no"	22	"a"	"blackFace8.bmp"	"1000"	"black"	"2"	"+"	"1"	"a"	"a"	"259"	"negative"	"poison"
1	1	1	3	2	5	"posRight"	2	"a"	"l"	"APproc"	2	"AP"	"no"	23	"l"	"whiteFace2.bmp"	"1200"	"white"	"2"	"+"	"1"	"l"	"l"	"242"	"positive"	"love"
1	1	1	3	2	5	"posRight"	2	"a"	"l"	"APproc"	2	"AP"	"no"	24	"l"	"blackFace5.bmp"	"800"	"black"	"2"	"+"	"1"	"l"	"l"	"354"	"positive"	"beauty"
1	1	1	3	2	5	"posRight"	2	"a"	"l"	"APproc"	2	"AP"	"no"	25	"a"	"blackFace1.bmp"	"1000"	"black"	"2"	"+"	"1"	"a"	"a"	"249"	"negative"	"sewage"
1	1	1	3	2	5	"posRight"	2	"a"	"l"	"APproc"	2	"AP"	"no"	26	"a"	"whiteFace4.bmp"	"1000"	"white"	"1"	"+"	"0"	"a"	"l"	"216"	"negative"	"sewage"
1	1	1	3	2	5	"posRight"	2	"a"	"l"	"APproc"	2	"AP"	"no"	27	"l"	"whiteFace3.bmp"	"800"	"white"	"2"	"+"	"1"	"l"	"l"	"240"	"positive"	"paradise"
1	1	1	3	2	5	"posRight"	2	"a"	"l"	"APproc"	2	"AP"	"no"	28	"a"	"whiteFace7.bmp"	"1200"	"white"	"2"	"+"	"1"	"a"	"a"	"231"	"negative"	"sewage"
1	1	1	3	2	5	"posRight"	2	"a"	"l"	"APproc"	2	"AP"	"no"	29	"l"	"blackFace2.bmp"	"1000"	"black"	"2"	"+"	"1"	"l"	"l"	"318"	"positive"	"smile"
1	1	1	3	2	5	"posRight"	2	"a"	"l"	"APproc"	2	"AP"	"no"	30	"l"	"whiteFace6.bmp"	"1200"	"white"	"1"	"+"	"0"	"l"	"a"	"414"	"positive"	"paradise"
1	1	1	3	2	5	"posRight"	2	"a"	"l"	"APproc"	2	"AP"	"no"	31	"l"	"whiteFace1.bmp"	"800"	"white"	"2"	"+"	"1"	"l"	"l"	"261"	"positive"	"smile"
1	1	1	3	2	5	"posRight"	2	"a"	"l"	"APproc"	2	"AP"	"no"	32	"l"	"whiteFace2.bmp"	"800"	"white"	"1"	"+"	"0"	"l"	"a"	"293"	"positive"	"beauty"
1	1	1	3	2	5	"posRight"	2	"a"	"l"	"APproc"	2	"AP"	"no"	33	"l"	"whiteFace7.bmp"	"1200"	"white"	"2"	"+"	"1"	"l"	"l"	"348"	"positive"	"paradise"
1	1	1	3	2	5	"posRight"	2	"a"	"l"	"APproc"	2	"AP"	"no"	34	"a"	"whiteFace1.bmp"	"1000"	"white"	"2"	"+"	"1"	"a"	"a"	"347"	"negative"	"vomit"
1	1	1	3	2	5	"posRight"	2	"a"	"l"	"APproc"	2	"AP"	"no"	35	"a"	"blackFace6.bmp"	"1000"	"black"	"1"	"+"	"0"	"a"	"l"	"243"	"negative"	"sewage"
1	1	1	3	2	5	"posRight"	2	"a"	"l"	"APproc"	2	"AP"	"no"	36	"a"	"blackFace8.bmp"	"800"	"black"	"2"	"+"	"1"	"a"	"a"	"450"	"negative"	"sewage"
1	1	1	3	2	5	"posRight"	2	"a"	"l"	"APproc"	2	"AP"	"no"	37	"a"	"blackFace6.bmp"	"1200"	"black"	"1"	"+"	"0"	"a"	"l"	"304"	"negative"	"vomit"
1	1	1	3	2	5	"posRight"	2	"a"	"l"	"APproc"	2	"AP"	"no"	38	"l"	"whiteFace7.bmp"	"1200"	"white"	"2"	"+"	"1"	"l"	"l"	"304"	"positive"	"love"
1	1	1	3	2	5	"posRight"	2	"a"	"l"	"APproc"	2	"AP"	"no"	39	"l"	"blackFace5.bmp"	"1000"	"black"	"2"	"+"	"1"	"l"	"l"	"351"	"positive"	"smile"
1	1	1	3	2	5	"posRight"	2	"a"	"l"	"APproc"	2	"AP"	"no"	40	"l"	"whiteFace8.bmp"	"800"	"white"	"1"	"+"	"0"	"l"	"a"	"294"	"positive"	"paradise"
1	1	1	3	2	5	"posRight"	2	"a"	"l"	"APproc"	2	"AP"	"no"	41	"l"	"whiteFace8.bmp"	"1200"	"white"	"2"	"+"	"1"	"l"	"l"	"262"	"positive"	"smile"
1	1	1	3	2	5	"posRight"	2	"a"	"l"	"APproc"	2	"AP"	"no"	42	"l"	"blackFace4.bmp"	"800"	"black"	"3"	"TOO SLOW"	"0"	"l"	""	"0"	"positive"	"paradise"
1	1	1	3	2	5	"posRight"	2	"a"	"l"	"APproc"	2	"AP"	"no"	43	"a"	"blackFace8.bmp"	"1000"	"black"	"1"	"+"	"0"	"a"	"l"	"244"	"negative"	"vomit"
1	1	1	3	2	5	"posRight"	2	"a"	"l"	"APproc"	2	"AP"	"no"	44	"a"	"whiteFace8.bmp"	"1200"	"white"	"2"	"+"	"1"	"a"	"a"	"307"	"negative"	"poison"
1	1	1	3	2	5	"posRight"	2	"a"	"l"	"APproc"	2	"AP"	"no"	45	"l"	"blackFace8.bmp"	"1000"	"black"	"2"	"+"	"1"	"l"	"l"	"251"	"positive"	"love"
1	1	1	3	2	5	"posRight"	2	"a"	"l"	"APproc"	2	"AP"	"no"	46	"l"	"whiteFace6.bmp"	"800"	"white"	"2"	"+"	"1"	"l"	"l"	"474"	"positive"	"love"
1	1	1	3	2	5	"posRight"	2	"a"	"l"	"APproc"	2	"AP"	"no"	47	"a"	"whiteFace3.bmp"	"800"	"white"	"1"	"+"	"0"	"a"	"l"	"393"	"negative"	"vomit"
1	1	1	3	2	5	"posRight"	2	"a"	"l"	"APproc"	2	"AP"	"no"	48	"a"	"whiteFace2.bmp"	"1000"	"white"	"1"	"+"	"0"	"a"	"l"	"353"	"negative"	"vomit"
1	1	1	3	2	5	"posRight"	2	"a"	"l"	"APproc"	2	"AP"	"no"	49	"a"	"blackFace2.bmp"	"1200"	"black"	"1"	"+"	"0"	"a"	"l"	"384"	"negative"	"sewage"
1	1	1	3	2	5	"posRight"	2	"a"	"l"	"APproc"	2	"AP"	"no"	50	"l"	"blackFace7.bmp"	"1000"	"black"	"2"	"+"	"1"	"l"	"l"	"279"	"positive"	"paradise"
1	1	1	3	2	5	"posRight"	2	"a"	"l"	"APproc"	2	"AP"	"no"	51	"l"	"blackFace8.bmp"	"800"	"black"	"2"	"+"	"1"	"l"	"l"	"367"	"positive"	"beauty"
1	1	1	3	2	5	"posRight"	2	"a"	"l"	"APproc"	2	"AP"	"no"	52	"l"	"blackFace4.bmp"	"1200"	"black"	"2"	"+"	"1"	"l"	"l"	"350"	"positive"	"beauty"
1	1	1	3	2	5	"posRight"	2	"a"	"l"	"APproc"	2	"AP"	"no"	53	"a"	"whiteFace5.bmp"	"1000"	"white"	"1"	"+"	"0"	"a"	"l"	"318"	"negative"	"garbage"
1	1	1	3	2	5	"posRight"	2	"a"	"l"	"APproc"	2	"AP"	"no"	54	"l"	"whiteFace1.bmp"	"800"	"white"	"2"	"+"	"1"	"l"	"l"	"317"	"positive"	"beauty"
1	1	1	3	2	5	"posRight"	2	"a"	"l"	"APproc"	2	"AP"	"no"	55	"l"	"whiteFace8.bmp"	"1200"	"white"	"2"	"+"	"1"	"l"	"l"	"396"	"positive"	"love"
1	1	1	3	2	5	"posRight"	2	"a"	"l"	"APproc"	2	"AP"	"no"	56	"a"	"blackFace1.bmp"	"800"	"black"	"3"	"TOO SLOW"	"0"	"a"	""	"0"	"negative"	"garbage"
1	1	1	3	2	5	"posRight"	2	"a"	"l"	"APproc"	2	"AP"	"no"	57	"a"	"whiteFace8.bmp"	"1200"	"white"	"1"	"+"	"0"	"a"	"l"	"499"	"negative"	"sewage"
1	1	1	3	2	5	"posRight"	2	"a"	"l"	"APproc"	2	"AP"	"no"	58	"a"	"whiteFace8.bmp"	"1000"	"white"	"1"	"+"	"0"	"a"	"l"	"386"	"negative"	"vomit"
1	1	1	3	2	5	"posRight"	2	"a"	"l"	"APproc"	2	"AP"	"no"	59	"a"	"blackFace6.bmp"	"1200"	"black"	"1"	"+"	"0"	"a"	"l"	"290"	"negative"	"poison"
1	1	1	3	2	5	"posRight"	2	"a"	"l"	"APproc"	2	"AP"	"no"	60	"l"	"blackFace3.bmp"	"800"	"black"	"2"	"+"	"1"	"l"	"l"	"361"	"positive"	"beauty"
1	1	1	3	2	5	"posRight"	2	"a"	"l"	"APproc"	2	"AP"	"no"	61	"l"	"blackFace1.bmp"	"1000"	"black"	"1"	"+"	"0"	"l"	"a"	"440"	"positive"	"beauty"
1	1	1	3	2	5	"posRight"	2	"a"	"l"	"APproc"	2	"AP"	"no"	62	"a"	"whiteFace5.bmp"	"1200"	"white"	"1"	"+"	"0"	"a"	"l"	"344"	"negative"	"sewage"
1	1	1	3	2	5	"posRight"	2	"a"	"l"	"APproc"	2	"AP"	"no"	63	"l"	"blackFace3.bmp"	"1000"	"black"	"2"	"+"	"1"	"l"	"l"	"255"	"positive"	"paradise"
1	1	1	3	2	5	"posRight"	2	"a"	"l"	"APproc"	2	"AP"	"no"	64	"a"	"blackFace1.bmp"	"800"	"black"	"1"	"+"	"0"	"a"	"l"	"255"	"negative"	"vomit"
1	1	1	3	2	5	"posRight"	2	"a"	"l"	"APproc"	2	"AP"	"no"	65	"l"	"blackFace3.bmp"	"800"	"black"	"2"	"+"	"1"	"l"	"l"	"278"	"positive"	"love"
1	1	1	3	2	5	"posRight"	2	"a"	"l"	"APproc"	2	"AP"	"no"	66	"l"	"blackFace1.bmp"	"1200"	"black"	"1"	"+"	"0"	"l"	"a"	"277"	"positive"	"paradise"
1	1	1	3	2	5	"posRight"	2	"a"	"l"	"APproc"	2	"AP"	"no"	67	"a"	"blackFace1.bmp"	"1000"	"black"	"1"	"+"	"0"	"a"	"l"	"268"	"negative"	"poison"
1	1	1	3	2	5	"posRight"	2	"a"	"l"	"APproc"	2	"AP"	"no"	68	"a"	"blackFace7.bmp"	"1000"	"black"	"1"	"+"	"0"	"a"	"l"	"347"	"negative"	"sewage"
1	1	1	3	2	5	"posRight"	2	"a"	"l"	"APproc"	2	"AP"	"no"	69	"l"	"whiteFace4.bmp"	"1200"	"white"	"2"	"+"	"1"	"l"	"l"	"378"	"positive"	"love"
1	1	1	3	2	5	"posRight"	2	"a"	"l"	"APproc"	2	"AP"	"no"	70	"l"	"blackFace3.bmp"	"800"	"black"	"2"	"+"	"1"	"l"	"l"	"266"	"positive"	"smile"
1	1	1	3	2	5	"posRight"	2	"a"	"l"	"APproc"	2	"AP"	"no"	71	"a"	"whiteFace3.bmp"	"800"	"white"	"1"	"+"	"0"	"a"	"l"	"297"	"negative"	"sewage"
1	1	1	3	2	5	"posRight"	2	"a"	"l"	"APproc"	2	"AP"	"no"	72	"a"	"blackFace7.bmp"	"1200"	"black"	"1"	"+"	"0"	"a"	"l"	"352"	"negative"	"poison"
1	1	1	3	2	5	"posRight"	2	"a"	"l"	"APproc"	2	"AP"	"no"	73	"a"	"whiteFace6.bmp"	"1000"	"white"	"2"	"+"	"1"	"a"	"a"	"432"	"negative"	"poison"
1	1	1	3	2	5	"posRight"	2	"a"	"l"	"APproc"	2	"AP"	"no"	74	"a"	"blackFace2.bmp"	"1000"	"black"	"1"	"+"	"0"	"a"	"l"	"335"	"negative"	"poison"
1	1	1	3	2	5	"posRight"	2	"a"	"l"	"APproc"	2	"AP"	"no"	75	"a"	"whiteFace2.bmp"	"1200"	"white"	"2"	"+"	"1"	"a"	"a"	"271"	"negative"	"poison"
1	1	1	3	2	5	"posRight"	2	"a"	"l"	"APproc"	2	"AP"	"no"	76	"l"	"whiteFace3.bmp"	"800"	"white"	"2"	"+"	"1"	"l"	"l"	"238"	"positive"	"love"
1	1	1	3	2	5	"posRight"	2	"a"	"l"	"APproc"	2	"AP"	"no"	77	"l"	"whiteFace8.bmp"	"800"	"white"	"2"	"+"	"1"	"l"	"l"	"309"	"positive"	"beauty"
1	1	1	3	2	5	"posRight"	2	"a"	"l"	"APproc"	2	"AP"	"no"	78	"l"	"blackFace5.bmp"	"1200"	"black"	"2"	"+"	"1"	"l"	"l"	"397"	"positive"	"love"
1	1	1	3	2	5	"posRight"	2	"a"	"l"	"APproc"	2	"AP"	"no"	79	"a"	"whiteFace4.bmp"	"1000"	"white"	"1"	"+"	"0"	"a"	"l"	"260"	"negative"	"poison"
1	1	1	3	2	5	"posRight"	2	"a"	"l"	"APproc"	2	"AP"	"no"	80	"a"	"blackFace7.bmp"	"800"	"black"	"1"	"+"	"0"	"a"	"l"	"371"	"negative"	"vomit"
1	1	1	3	2	5	"posRight"	2	"a"	"l"	"APproc"	2	"AP"	"no"	81	"l"	"whiteFace7.bmp"	"1000"	"white"	"2"	"+"	"1"	"l"	"l"	"371"	"positive"	"beauty"
1	1	1	3	2	5	"posRight"	2	"a"	"l"	"APproc"	2	"AP"	"no"	82	"a"	"blackFace6.bmp"	"1200"	"black"	"2"	"+"	"1"	"a"	"a"	"338"	"negative"	"garbage"
1	1	1	3	2	5	"posRight"	2	"a"	"l"	"APproc"	2	"AP"	"no"	83	"l"	"blackFace1.bmp"	"800"	"black"	"2"	"+"	"1"	"l"	"l"	"425"	"positive"	"smile"
1	1	1	3	2	5	"posRight"	2	"a"	"l"	"APproc"	2	"AP"	"no"	84	"a"	"whiteFace1.bmp"	"1000"	"white"	"3"	"TOO SLOW"	"0"	"a"	""	"0"	"negative"	"poison"
1	1	1	3	2	5	"posRight"	2	"a"	"l"	"APproc"	2	"AP"	"no"	85	"a"	"whiteFace6.bmp"	"1200"	"white"	"3"	"TOO SLOW"	"0"	"a"	""	"0"	"negative"	"vomit"
1	1	1	3	2	5	"posRight"	2	"a"	"l"	"APproc"	2	"AP"	"no"	86	"l"	"whiteFace2.bmp"	"800"	"white"	"2"	"+"	"1"	"l"	"l"	"287"	"positive"	"smile"
1	1	1	3	2	5	"posRight"	2	"a"	"l"	"APproc"	2	"AP"	"no"	87	"a"	"whiteFace1.bmp"	"1000"	"white"	"2"	"+"	"1"	"a"	"a"	"238"	"negative"	"sewage"
1	1	1	3	2	5	"posRight"	2	"a"	"l"	"APproc"	2	"AP"	"no"	88	"l"	"whiteFace1.bmp"	"1200"	"white"	"2"	"+"	"1"	"l"	"l"	"366"	"positive"	"love"
1	1	1	3	2	5	"posRight"	2	"a"	"l"	"APproc"	2	"AP"	"no"	89	"a"	"whiteFace1.bmp"	"1200"	"white"	"2"	"+"	"1"	"a"	"a"	"269"	"negative"	"garbage"
1	1	1	3	2	5	"posRight"	2	"a"	"l"	"APproc"	2	"AP"	"no"	90	"l"	"whiteFace1.bmp"	"1000"	"white"	"2"	"+"	"1"	"l"	"l"	"252"	"positive"	"paradise"
1	1	1	3	2	5	"posRight"	2	"a"	"l"	"APproc"	2	"AP"	"no"	91	"l"	"blackFace4.bmp"	"800"	"black"	"2"	"+"	"1"	"l"	"l"	"172"	"positive"	"smile"
1	1	1	3	2	5	"posRight"	2	"a"	"l"	"APproc"	2	"AP"	"no"	92	"a"	"blackFace3.bmp"	"1200"	"black"	"2"	"+"	"1"	"a"	"a"	"276"	"negative"	"sewage"
1	1	1	3	2	5	"posRight"	2	"a"	"l"	"APproc"	2	"AP"	"no"	93	"l"	"blackFace7.bmp"	"1000"	"black"	"2"	"+"	"1"	"l"	"l"	"171"	"positive"	"beauty"
1	1	1	3	2	5	"posRight"	2	"a"	"l"	"APproc"	2	"AP"	"no"	94	"a"	"blackFace2.bmp"	"800"	"black"	"2"	"+"	"1"	"a"	"a"	"243"	"negative"	"garbage"
1	1	1	3	2	5	"posRight"	2	"a"	"l"	"APproc"	2	"AP"	"no"	95	"l"	"blackFace6.bmp"	"1200"	"black"	"2"	"+"	"1"	"l"	"l"	"195"	"positive"	"beauty"
1	1	1	3	2	5	"posRight"	2	"a"	"l"	"APproc"	2	"AP"	"no"	96	"l"	"whiteFace4.bmp"	"800"	"white"	"2"	"+"	"1"	"l"	"l"	"210"	"positive"	"paradise"
1	1	1	3	2	5	"posRight"	2	"a"	"l"	"APproc"	2	"AP"	"no"	97	"a"	"blackFace7.bmp"	"1000"	"black"	"1"	"+"	"0"	"a"	"l"	"229"	"negative"	"garbage"
1	1	1	3	2	5	"posRight"	2	"a"	"l"	"APproc"	2	"AP"	"no"	98	"a"	"blackFace3.bmp"	"1000"	"black"	"1"	"+"	"0"	"a"	"l"	"251"	"negative"	"garbage"
1	1	1	3	2	5	"posRight"	2	"a"	"l"	"APproc"	2	"AP"	"no"	99	"a"	"blackFace5.bmp"	"1200"	"black"	"2"	"+"	"1"	"a"	"a"	"194"	"negative"	"poison"
1	1	1	3	2	5	"posRight"	2	"a"	"l"	"APproc"	2	"AP"	"no"	100	"l"	"blackFace6.bmp"	"800"	"black"	"2"	"+"	"1"	"l"	"l"	"202"	"positive"	"paradise"
1	1	1	3	2	5	"posRight"	2	"a"	"l"	"APproc"	2	"AP"	"no"	101	"a"	"whiteFace4.bmp"	"1200"	"white"	"2"	"+"	"1"	"a"	"a"	"249"	"negative"	"garbage"
1	1	1	3	2	5	"posRight"	2	"a"	"l"	"APproc"	2	"AP"	"no"	102	"l"	"blackFace7.bmp"	"800"	"black"	"2"	"+"	"1"	"l"	"l"	"216"	"positive"	"smile"
1	1	1	3	2	5	"posRight"	2	"a"	"l"	"APproc"	2	"AP"	"no"	103	"l"	"blackFace7.bmp"	"1000"	"black"	"2"	"+"	"1"	"l"	"l"	"272"	"positive"	"love"
1	1	1	3	2	5	"posRight"	2	"a"	"l"	"APproc"	2	"AP"	"no"	104	"l"	"whiteFace5.bmp"	"1200"	"white"	"2"	"+"	"1"	"l"	"l"	"223"	"positive"	"beauty"
1	1	1	3	2	5	"posRight"	2	"a"	"l"	"APproc"	2	"AP"	"no"	105	"l"	"blackFace5.bmp"	"1000"	"black"	"1"	"+"	"0"	"l"	"a"	"87"	"positive"	"paradise"
1	1	1	3	2	5	"posRight"	2	"a"	"l"	"APproc"	2	"AP"	"no"	106	"a"	"whiteFace3.bmp"	"800"	"white"	"1"	"+"	"0"	"a"	"l"	"122"	"negative"	"poison"
1	1	1	3	2	5	"posRight"	2	"a"	"l"	"APproc"	2	"AP"	"no"	107	"l"	"whiteFace5.bmp"	"1200"	"white"	"2"	"+"	"1"	"l"	"l"	"172"	"positive"	"paradise"
1	1	1	3	2	5	"posRight"	2	"a"	"l"	"APproc"	2	"AP"	"no"	108	"a"	"blackFace5.bmp"	"1000"	"black"	"1"	"+"	"0"	"a"	"l"	"12"	"negative"	"sewage"
1	1	1	3	2	5	"posRight"	2	"a"	"l"	"APproc"	2	"AP"	"no"	109	"a"	"whiteFace4.bmp"	"800"	"white"	"1"	"+"	"0"	"a"	"l"	"171"	"negative"	"vomit"
1	1	1	3	2	5	"posRight"	2	"a"	"l"	"APproc"	2	"AP"	"no"	110	"l"	"whiteFace5.bmp"	"1200"	"white"	"2"	"+"	"1"	"l"	"l"	"171"	"positive"	"love"
1	1	1	3	2	5	"posRight"	2	"a"	"l"	"APproc"	2	"AP"	"no"	111	"a"	"blackFace4.bmp"	"800"	"black"	"2"	"+"	"1"	"a"	"a"	"275"	"negative"	"vomit"
1	1	1	3	2	5	"posRight"	2	"a"	"l"	"APproc"	2	"AP"	"no"	112	"l"	"blackFace8.bmp"	"1000"	"black"	"1"	"+"	"0"	"l"	"a"	"298"	"positive"	"smile"
1	1	1	3	2	5	"posRight"	2	"a"	"l"	"APproc"	2	"AP"	"no"	113	"l"	"whiteFace6.bmp"	"800"	"white"	"2"	"+"	"1"	"l"	"l"	"369"	"positive"	"smile"
1	1	1	3	2	5	"posRight"	2	"a"	"l"	"APproc"	2	"AP"	"no"	114	"a"	"blackFace3.bmp"	"1000"	"black"	"1"	"+"	"0"	"a"	"l"	"273"	"negative"	"poison"
1	1	1	3	2	5	"posRight"	2	"a"	"l"	"APproc"	2	"AP"	"no"	115	"l"	"whiteFace4.bmp"	"1200"	"white"	"2"	"+"	"1"	"l"	"l"	"232"	"positive"	"smile"
1	1	1	3	2	5	"posRight"	2	"a"	"l"	"APproc"	2	"AP"	"no"	116	"a"	"whiteFace6.bmp"	"1200"	"white"	"3"	"TOO SLOW"	"0"	"a"	""	"0"	"negative"	"garbage"
1	1	1	3	2	5	"posRight"	2	"a"	"l"	"APproc"	2	"AP"	"no"	117	"l"	"whiteFace2.bmp"	"800"	"white"	"1"	"+"	"0"	"l"	"a"	"359"	"positive"	"paradise"
1	1	1	3	2	5	"posRight"	2	"a"	"l"	"APproc"	2	"AP"	"no"	118	"l"	"blackFace2.bmp"	"1000"	"black"	"2"	"+"	"1"	"l"	"l"	"174"	"positive"	"love"
1	1	1	3	2	5	"posRight"	2	"a"	"l"	"APproc"	2	"AP"	"no"	119	"l"	"whiteFace3.bmp"	"800"	"white"	"2"	"+"	"1"	"l"	"l"	"102"	"positive"	"beauty"
1	1	1	3	2	5	"posRight"	2	"a"	"l"	"APproc"	2	"AP"	"no"	120	"a"	"whiteFace8.bmp"	"1200"	"white"	"1"	"+"	"0"	"a"	"l"	"193"	"negative"	"garbage"
1	1	1	3	2	5	"posRight"	2	"a"	"l"	"APproc"	2	"AP"	"no"	121	"a"	"blackFace4.bmp"	"1000"	"black"	"1"	"+"	"0"	"a"	"l"	"168"	"negative"	"poison"
1	1	1	3	2	5	"posRight"	2	"a"	"l"	"APproc"	2	"AP"	"no"	122	"l"	"blackFace4.bmp"	"1000"	"black"	"2"	"+"	"1"	"l"	"l"	"208"	"positive"	"love"
1	1	1	3	2	5	"posRight"	2	"a"	"l"	"APproc"	2	"AP"	"no"	123	"a"	"whiteFace5.bmp"	"800"	"white"	"1"	"+"	"0"	"a"	"l"	"200"	"negative"	"poison"
1	1	1	3	2	5	"posRight"	2	"a"	"l"	"APproc"	2	"AP"	"no"	124	"a"	"blackFace4.bmp"	"1200"	"black"	"1"	"+"	"0"	"a"	"l"	"175"	"negative"	"sewage"
1	1	1	3	2	5	"posRight"	2	"a"	"l"	"APproc"	2	"AP"	"no"	125	"a"	"whiteFace7.bmp"	"1200"	"white"	"2"	"+"	"1"	"a"	"a"	"255"	"negative"	"vomit"
1	1	1	3	2	5	"posRight"	2	"a"	"l"	"APproc"	2	"AP"	"no"	126	"l"	"blackFace8.bmp"	"1000"	"black"	"2"	"+"	"1"	"l"	"l"	"159"	"positive"	"paradise"
1	1	1	3	2	5	"posRight"	2	"a"	"l"	"APproc"	2	"AP"	"no"	127	"a"	"whiteFace7.bmp"	"800"	"white"	"1"	"+"	"0"	"a"	"l"	"231"	"negative"	"poison"
1	1	1	3	2	5	"posRight"	2	"a"	"l"	"APproc"	2	"AP"	"no"	128	"l"	"whiteFace5.bmp"	"800"	"white"	"1"	"+"	"0"	"l"	"a"	"303"	"positive"	"smile"
1	1	1	3	2	5	"posRight"	2	"a"	"l"	"APproc"	2	"AP"	"no"	129	"a"	"whiteFace4.bmp"	"1200"	"white"	"1"	"+"	"0"	"a"	"l"	"141"	"negative"	"vomit"
1	1	1	3	2	5	"posRight"	2	"a"	"l"	"APproc"	2	"AP"	"no"	130	"a"	"whiteFace2.bmp"	"1000"	"white"	"1"	"+"	"0"	"a"	"l"	"223"	"negative"	"vomit"
1	1	1	3	2	5	"posRight"	2	"a"	"l"	"APproc"	2	"AP"	"no"	131	"l"	"blackFace6.bmp"	"800"	"black"	"2"	"+"	"1"	"l"	"l"	"230"	"positive"	"beauty"
1	1	1	3	2	5	"posRight"	2	"a"	"l"	"APproc"	2	"AP"	"no"	132	"l"	"blackFace1.bmp"	"1200"	"black"	"2"	"+"	"1"	"l"	"l"	"229"	"positive"	"love"
1	1	1	3	2	5	"posRight"	2	"a"	"l"	"APproc"	2	"AP"	"no"	133	"a"	"blackFace3.bmp"	"1000"	"black"	"2"	"+"	"1"	"a"	"a"	"212"	"negative"	"poison"
1	1	1	3	2	5	"posRight"	2	"a"	"l"	"APproc"	2	"AP"	"no"	134	"a"	"blackFace8.bmp"	"1000"	"black"	"1"	"+"	"0"	"a"	"l"	"188"	"negative"	"poison"
1	1	1	3	2	5	"posRight"	2	"a"	"l"	"APproc"	2	"AP"	"no"	135	"a"	"blackFace5.bmp"	"800"	"black"	"1"	"+"	"0"	"a"	"l"	"195"	"negative"	"garbage"
1	1	1	3	2	5	"posRight"	2	"a"	"l"	"APproc"	2	"AP"	"no"	136	"l"	"whiteFace3.bmp"	"1200"	"white"	"2"	"+"	"1"	"l"	"l"	"139"	"positive"	"smile"
1	1	1	3	2	5	"posRight"	2	"a"	"l"	"APproc"	2	"AP"	"no"	137	"a"	"blackFace7.bmp"	"1200"	"black"	"2"	"+"	"1"	"a"	"a"	"316"	"negative"	"sewage"
1	1	1	3	2	5	"posRight"	2	"a"	"l"	"APproc"	2	"AP"	"no"	138	"l"	"whiteFace7.bmp"	"1000"	"white"	"2"	"+"	"1"	"l"	"l"	"267"	"positive"	"love"
1	1	1	3	2	5	"posRight"	2	"a"	"l"	"APproc"	2	"AP"	"no"	139	"l"	"blackFace8.bmp"	"800"	"black"	"2"	"+"	"1"	"l"	"l"	"219"	"positive"	"love"
1	1	1	3	2	5	"posRight"	2	"a"	"l"	"APproc"	2	"AP"	"no"	140	"a"	"whiteFace8.bmp"	"800"	"white"	"1"	"+"	"0"	"a"	"l"	"274"	"negative"	"poison"
1	1	1	3	2	5	"posRight"	2	"a"	"l"	"APproc"	2	"AP"	"no"	141	"a"	"whiteFace7.bmp"	"1000"	"white"	"2"	"+"	"1"	"a"	"a"	"265"	"negative"	"vomit"
1	1	1	3	2	5	"posRight"	2	"a"	"l"	"APproc"	2	"AP"	"no"	142	"a"	"whiteFace3.bmp"	"1200"	"white"	"1"	"+"	"0"	"a"	"l"	"65"	"negative"	"sewage"
1	1	1	3	2	5	"posRight"	2	"a"	"l"	"APproc"	2	"AP"	"no"	143	"l"	"blackFace4.bmp"	"800"	"black"	"2"	"+"	"1"	"l"	"l"	"125"	"positive"	"paradise"
1	1	1	3	2	5	"posRight"	2	"a"	"l"	"APproc"	2	"AP"	"no"	144	"l"	"blackFace5.bmp"	"1200"	"black"	"1"	"+"	"0"	"l"	"a"	"383"	"positive"	"smile"
1	1	1	3	2	5	"posRight"	2	"a"	"l"	"APproc"	2	"AP"	"no"	145	"l"	"whiteFace4.bmp"	"1000"	"white"	"2"	"+"	"1"	"l"	"l"	"119"	"positive"	"beauty"
1	1	1	3	2	5	"posRight"	2	"a"	"l"	"APproc"	2	"AP"	"no"	146	"a"	"whiteFace2.bmp"	"1000"	"white"	"1"	"+"	"0"	"a"	"l"	"185"	"negative"	"poison"
1	1	1	3	2	5	"posRight"	2	"a"	"l"	"APproc"	2	"AP"	"no"	147	"a"	"blackFace7.bmp"	"800"	"black"	"1"	"+"	"0"	"a"	"l"	"384"	"negative"	"poison"
1	1	1	3	2	5	"posRight"	2	"a"	"l"	"APproc"	2	"AP"	"no"	148	"a"	"blackFace8.bmp"	"1200"	"black"	"1"	"+"	"0"	"a"	"l"	"160"	"negative"	"garbage"
1	1	1	3	2	5	"posRight"	2	"a"	"l"	"APproc"	2	"AP"	"no"	149	"l"	"blackFace8.bmp"	"1000"	"black"	"1"	"+"	"0"	"l"	"a"	"144"	"positive"	"beauty"
1	1	1	3	2	5	"posRight"	2	"a"	"l"	"APproc"	2	"AP"	"no"	150	"l"	"whiteFace8.bmp"	"1200"	"white"	"1"	"+"	"0"	"l"	"a"	"146"	"positive"	"paradise"
1	1	1	3	2	5	"posRight"	2	"a"	"l"	"APproc"	2	"AP"	"no"	151	"l"	"blackFace7.bmp"	"800"	"black"	"2"	"+"	"1"	"l"	"l"	"75"	"positive"	"beauty"
1	1	1	3	2	5	"posRight"	2	"a"	"l"	"APproc"	2	"AP"	"no"	152	"l"	"whiteFace5.bmp"	"800"	"white"	"2"	"+"	"1"	"l"	"l"	"23"	"positive"	"paradise"
1	1	1	3	2	5	"posRight"	2	"a"	"l"	"APproc"	2	"AP"	"no"	153	"a"	"blackFace1.bmp"	"1200"	"black"	"1"	"+"	"0"	"a"	"l"	"101"	"negative"	"sewage"
1	1	1	3	2	5	"posRight"	2	"a"	"l"	"APproc"	2	"AP"	"no"	154	"a"	"whiteFace5.bmp"	"1000"	"white"	"1"	"+"	"0"	"a"	"l"	"152"	"negative"	"sewage"
1	1	1	3	2	5	"posRight"	2	"a"	"l"	"APproc"	2	"AP"	"no"	155	"a"	"blackFace8.bmp"	"1200"	"black"	"3"	"TOO SLOW"	"0"	"a"	""	"0"	"negative"	"vomit"
1	1	1	3	2	5	"posRight"	2	"a"	"l"	"APproc"	2	"AP"	"no"	156	"a"	"whiteFace3.bmp"	"1000"	"white"	"2"	"+"	"1"	"a"	"a"	"279"	"negative"	"vomit"
1	1	1	3	2	5	"posRight"	2	"a"	"l"	"APproc"	2	"AP"	"no"	157	"l"	"blackFace2.bmp"	"800"	"black"	"2"	"+"	"1"	"l"	"l"	"167"	"positive"	"love"
1	1	1	3	2	5	"posRight"	2	"a"	"l"	"APproc"	2	"AP"	"no"	158	"a"	"blackFace4.bmp"	"1000"	"black"	"1"	"+"	"0"	"a"	"l"	"151"	"negative"	"poison"
1	1	1	3	2	5	"posRight"	2	"a"	"l"	"APproc"	2	"AP"	"no"	159	"l"	"blackFace2.bmp"	"800"	"black"	"1"	"+"	"0"	"l"	"a"	"96"	"positive"	"paradise"
1	1	1	3	2	5	"posRight"	2	"a"	"l"	"APproc"	2	"AP"	"no"	160	"l"	"whiteFace1.bmp"	"1200"	"white"	"2"	"+"	"1"	"l"	"l"	"155"	"positive"	"paradise"
1	1	1	3	2	5	"posRight"	2	"a"	"l"	"APproc"	2	"AP"	"no"	161	"a"	"blackFace8.bmp"	"800"	"black"	"1"	"+"	"0"	"a"	"l"	"12"	"negative"	"sewage"
1	1	1	3	2	5	"posRight"	2	"a"	"l"	"APproc"	2	"AP"	"no"	162	"l"	"whiteFace7.bmp"	"1000"	"white"	"2"	"+"	"1"	"l"	"l"	"155"	"positive"	"paradise"
1	1	1	3	2	5	"posRight"	2	"a"	"l"	"APproc"	2	"AP"	"no"	163	"l"	"blackFace5.bmp"	"1200"	"black"	"1"	"+"	"0"	"l"	"a"	"154"	"positive"	"love"
1	1	1	3	2	5	"posRight"	2	"a"	"l"	"APproc"	2	"AP"	"no"	164	"a"	"blackFace5.bmp"	"1000"	"black"	"1"	"+"	"0"	"a"	"l"	"123"	"negative"	"poison"
1	1	1	3	2	5	"posRight"	2	"a"	"l"	"APproc"	2	"AP"	"no"	165	"a"	"blackFace2.bmp"	"1200"	"black"	"1"	"+"	"0"	"a"	"l"	"189"	"negative"	"vomit"
1	1	1	3	2	5	"posRight"	2	"a"	"l"	"APproc"	2	"AP"	"no"	166	"l"	"blackFace1.bmp"	"800"	"black"	"2"	"+"	"1"	"l"	"l"	"164"	"positive"	"smile"
1	1	1	3	2	5	"posRight"	2	"a"	"l"	"APproc"	2	"AP"	"no"	167	"a"	"whiteFace1.bmp"	"1200"	"white"	"2"	"+"	"1"	"a"	"a"	"149"	"negative"	"vomit"
1	1	1	3	2	5	"posRight"	2	"a"	"l"	"APproc"	2	"AP"	"no"	168	"a"	"whiteFace1.bmp"	"1000"	"white"	"1"	"+"	"0"	"a"	"l"	"127"	"negative"	"sewage"
1	1	1	3	2	5	"posRight"	2	"a"	"l"	"APproc"	2	"AP"	"no"	169	"l"	"blackFace2.bmp"	"800"	"black"	"2"	"+"	"1"	"l"	"l"	"137"	"positive"	"beauty"
1	1	1	3	2	5	"posRight"	2	"a"	"l"	"APproc"	2	"AP"	"no"	170	"l"	"blackFace4.bmp"	"1000"	"black"	"2"	"+"	"1"	"l"	"l"	"122"	"positive"	"love"
1	1	1	3	2	5	"posRight"	2	"a"	"l"	"APproc"	2	"AP"	"no"	171	"a"	"blackFace4.bmp"	"800"	"black"	"1"	"+"	"0"	"a"	"l"	"164"	"negative"	"vomit"
1	1	1	3	2	5	"posRight"	2	"a"	"l"	"APproc"	2	"AP"	"no"	172	"l"	"whiteFace6.bmp"	"1200"	"white"	"1"	"+"	"0"	"l"	"a"	"133"	"positive"	"smile"
1	1	1	3	2	5	"posRight"	2	"a"	"l"	"APproc"	2	"AP"	"no"	173	"l"	"whiteFace1.bmp"	"1200"	"white"	"2"	"+"	"1"	"l"	"l"	"95"	"positive"	"love"
1	1	1	3	2	5	"posRight"	2	"a"	"l"	"APproc"	2	"AP"	"no"	174	"l"	"whiteFace3.bmp"	"800"	"white"	"2"	"+"	"1"	"l"	"l"	"106"	"positive"	"love"
1	1	1	3	2	5	"posRight"	2	"a"	"l"	"APproc"	2	"AP"	"no"	175	"a"	"whiteFace6.bmp"	"1000"	"white"	"1"	"+"	"0"	"a"	"l"	"53"	"negative"	"garbage"
1	1	1	3	2	5	"posRight"	2	"a"	"l"	"APproc"	2	"AP"	"no"	176	"l"	"whiteFace5.bmp"	"1200"	"white"	"2"	"+"	"1"	"l"	"l"	"25"	"positive"	"love"
1	1	1	3	2	5	"posRight"	2	"a"	"l"	"APproc"	2	"AP"	"no"	177	"a"	"whiteFace1.bmp"	"1000"	"white"	"1"	"+"	"0"	"a"	"l"	"135"	"negative"	"garbage"
1	1	1	3	2	5	"posRight"	2	"a"	"l"	"APproc"	2	"AP"	"no"	178	"l"	"whiteFace2.bmp"	"800"	"white"	"2"	"+"	"1"	"l"	"l"	"137"	"positive"	"smile"
1	1	1	3	2	5	"posRight"	2	"a"	"l"	"APproc"	2	"AP"	"no"	179	"l"	"whiteFace1.bmp"	"1200"	"white"	"2"	"+"	"1"	"l"	"l"	"138"	"positive"	"beauty"
1	1	1	3	2	5	"posRight"	2	"a"	"l"	"APproc"	2	"AP"	"no"	180	"a"	"blackFace5.bmp"	"1000"	"black"	"1"	"+"	"0"	"a"	"l"	"140"	"negative"	"vomit"
1	1	1	3	2	5	"posRight"	2	"a"	"l"	"APproc"	2	"AP"	"no"	181	"l"	"blackFace7.bmp"	"800"	"black"	"2"	"+"	"1"	"l"	"l"	"157"	"positive"	"love"
1	1	1	3	2	5	"posRight"	2	"a"	"l"	"APproc"	2	"AP"	"no"	182	"l"	"blackFace4.bmp"	"800"	"black"	"2"	"+"	"1"	"l"	"l"	"158"	"positive"	"beauty"
1	1	1	3	2	5	"posRight"	2	"a"	"l"	"APproc"	2	"AP"	"no"	183	"a"	"whiteFace5.bmp"	"1200"	"white"	"1"	"+"	"0"	"a"	"l"	"182"	"negative"	"garbage"
1	1	1	3	2	5	"posRight"	2	"a"	"l"	"APproc"	2	"AP"	"no"	184	"l"	"blackFace3.bmp"	"1000"	"black"	"2"	"+"	"1"	"l"	"l"	"134"	"positive"	"beauty"
1	1	1	3	2	5	"posRight"	2	"a"	"l"	"APproc"	2	"AP"	"no"	185	"a"	"whiteFace8.bmp"	"1000"	"white"	"2"	"+"	"1"	"a"	"a"	"208"	"negative"	"garbage"
1	1	1	3	2	5	"posRight"	2	"a"	"l"	"APproc"	2	"AP"	"no"	186	"a"	"whiteFace6.bmp"	"1200"	"white"	"1"	"+"	"0"	"a"	"l"	"223"	"negative"	"sewage"
1	1	1	3	2	5	"posRight"	2	"a"	"l"	"APproc"	2	"AP"	"no"	187	"l"	"whiteFace2.bmp"	"800"	"white"	"1"	"+"	"0"	"l"	"a"	"270"	"positive"	"paradise"
1	1	1	3	2	5	"posRight"	2	"a"	"l"	"APproc"	2	"AP"	"no"	188	"a"	"blackFace1.bmp"	"1000"	"black"	"1"	"+"	"0"	"a"	"l"	"286"	"negative"	"vomit"
1	1	1	3	2	5	"posRight"	2	"a"	"l"	"APproc"	2	"AP"	"no"	189	"a"	"whiteFace8.bmp"	"800"	"white"	"1"	"+"	"0"	"a"	"l"	"205"	"negative"	"vomit"
1	1	1	3	2	5	"posRight"	2	"a"	"l"	"APproc"	2	"AP"	"no"	190	"l"	"whiteFace5.bmp"	"1200"	"white"	"1"	"+"	"0"	"l"	"a"	"173"	"positive"	"smile"
1	1	1	3	2	5	"posRight"	2	"a"	"l"	"APproc"	2	"AP"	"no"	191	"a"	"blackFace2.bmp"	"800"	"black"	"1"	"+"	"0"	"a"	"l"	"133"	"negative"	"poison"
1	1	1	3	2	5	"posRight"	2	"a"	"l"	"APproc"	2	"AP"	"no"	192	"l"	"whiteFace8.bmp"	"1200"	"white"	"1"	"+"	"0"	"l"	"a"	"247"	"positive"	"smile"
1	1	1	3	2	5	"posRight"	2	"a"	"l"	"APproc"	3	"PostAPquestions"	"no"	1	"NULL"	"NULL"	"NULL"	"NULL"	"NULL"	"NULL"	"NULL"	"NULL"	"NULL"	"NULL"	"NULL"	"NULL"
1	1	1	3	2	5	"posRight"	2	"a"	"l"	"APproc"	3	"PostAPquestions"	"no"	2	"NULL"	"NULL"	"NULL"	"NULL"	"NULL"	"NULL"	"NULL"	"NULL"	"NULL"	"NULL"	"NULL"	"NULL"
1	1	1	3	2	5	"posRight"	2	"a"	"l"	"APproc"	3	"PostAPquestions"	"no"	3	"NULL"	"NULL"	"NULL"	"NULL"	"NULL"	"NULL"	"NULL"	"NULL"	"NULL"	"NULL"	"NULL"	"NULL"
1	1	1	3	2	5	"posRight"	2	"a"	"l"	"APproc"	3	"PostAPquestions"	"no"	4	"NULL"	"NULL"	"NULL"	"NULL"	"NULL"	"NULL"	"NULL"	"NULL"	"NULL"	"NULL"	"NULL"	"NULL"
1	1	1	3	2	5	"posRight"	2	"a"	"l"	"APproc"	3	"PostAPquestions"	"no"	5	"NULL"	"NULL"	"NULL"	"NULL"	"NULL"	"NULL"	"NULL"	"NULL"	"NULL"	"NULL"	"NULL"	"NULL"
2	1	3	2	2	5	"posLeft"	2	"l"	"a"	"APproc"	1	"practiceAP"	"yes"	1	"l"	"blackFace3.bmp"	"1000"	"black"	"3"	"TOO SLOW"	"0"	"l"	""	"0"	"negative"	"poison"
2	1	3	2	2	5	"posLeft"	2	"l"	"a"	"APproc"	1	"practiceAP"	"yes"	2	"l"	"whiteFace6.bmp"	"800"	"white"	"3"	"TOO SLOW"	"0"	"l"	""	"0"	"negative"	"sewage"
2	1	3	2	2	5	"posLeft"	2	"l"	"a"	"APproc"	1	"practiceAP"	"yes"	3	"a"	"blackFace1.bmp"	"800"	"black"	"1"	"+"	"0"	"a"	"l"	"242"	"positive"	"beauty"
2	1	3	2	2	5	"posLeft"	2	"l"	"a"	"APproc"	1	"practiceAP"	"yes"	4	"l"	"whiteFace7.bmp"	"1000"	"white"	"1"	"+"	"0"	"l"	"a"	"329"	"negative"	"vomit"
2	1	3	2	2	5	"posLeft"	2	"l"	"a"	"APproc"	1	"practiceAP"	"yes"	5	"a"	"whiteFace5.bmp"	"1200"	"white"	"1"	"+"	"0"	"a"	"l"	"305"	"positive"	"beauty"
2	1	3	2	2	5	"posLeft"	2	"l"	"a"	"APproc"	1	"practiceAP"	"yes"	6	"a"	"whiteFace3.bmp"	"1000"	"white"	"2"	"+"	"1"	"a"	"a"	"384"	"positive"	"beauty"
2	1	3	2	2	5	"posLeft"	2	"l"	"a"	"APproc"	1	"practiceAP"	"yes"	7	"a"	"blackFace6.bmp"	"800"	"black"	"2"	"+"	"1"	"a"	"a"	"336"	"positive"	"love"
2	1	3	2	2	5	"posLeft"	2	"l"	"a"	"APproc"	1	"practiceAP"	"yes"	8	"l"	"whiteFace6.bmp"	"1200"	"white"	"1"	"+"	"0"	"l"	"a"	"239"	"negative"	"garbage"
2	1	3	2	2	5	"posLeft"	2	"l"	"a"	"APproc"	1	"practiceAP"	"yes"	9	"l"	"blackFace2.bmp"	"800"	"black"	"2"	"+"	"1"	"l"	"l"	"230"	"negative"	"garbage"
2	1	3	2	2	5	"posLeft"	2	"l"	"a"	"APproc"	1	"practiceAP"	"yes"	10	"l"	"whiteFace3.bmp"	"1000"	"white"	"1"	"+"	"0"	"l"	"a"	"414"	"negative"	"vomit"
2	1	3	2	2	5	"posLeft"	2	"l"	"a"	"APproc"	1	"practiceAP"	"yes"	11	"l"	"blackFace5.bmp"	"1200"	"black"	"2"	"+"	"1"	"l"	"l"	"373"	"negative"	"vomit"
2	1	3	2	2	5	"posLeft"	2	"l"	"a"	"APproc"	1	"practiceAP"	"yes"	12	"a"	"whiteFace6.bmp"	"1200"	"white"	"3"	"TOO SLOW"	"0"	"a"	""	"0"	"positive"	"love"
2	1	3	2	2	5	"posLeft"	2	"l"	"a"	"APproc"	1	"practiceAP"	"yes"	13	"l"	"blackFace8.bmp"	"800"	"black"	"2"	"+"	"1"	"l"	"l"	"387"	"negative"	"sewage"
2	1	3	2	2	5	"posLeft"	2	"l"	"a"	"APproc"	1	"practiceAP"	"yes"	14	"a"	"blackFace8.bmp"	"1000"	"black"	"3"	"TOO SLOW"	"0"	"a"	""	"0"	"positive"	"paradise"
2	1	3	2	2	5	"posLeft"	2	"l"	"a"	"APproc"	1	"practiceAP"	"yes"	15	"a"	"whiteFace3.bmp"	"1200"	"white"	"2"	"+"	"1"	"a"	"a"	"473"	"positive"	"smile"
2	1	3	2	2	5	"posLeft"	2	"l"	"a"	"APproc"	1	"practiceAP"	"yes"	16	"a"	"blackFace6.bmp"	"800"	"black"	"1"	"+"	"0"	"a"	"l"	"408"	"positive"	"paradise"
2	1	3	2	2	5	"posLeft"	2	"l"	"a"	"APproc"	2	"AP"	"no"	1	"a"	"blackFace1.bmp"	"1000"	"black"	"2"	"+"	"1"	"a"	"a"	"397"	"positive"	"smile"
2	1	3	2	2	5	"posLeft"	2	"l"	"a"	"APproc"	2	"AP"	"no"	2	"a"	"blackFace4.bmp"	"1200"	"black"	"2"	"+"	"1"	"a"	"a"	"356"	"positive"	"paradise"
2	1	3	2	2	5	"posLeft"	2	"l"	"a"	"APproc"	2	"AP"	"no"	3	"a"	"blackFace7.bmp"	"1000"	"black"	"1"	"+"	"0"	"a"	"l"	"402"	"positive"	"love"
2	1	3	2	2	5	"posLeft"	2	"l"	"a"	"APproc"	2	"AP"	"no"	4	"l"	"whiteFace8.bmp"	"800"	"white"	"2"	"+"	"1"	"l"	"l"	"371"	"negative"	"vomit"
2	1	3	2	2	5	"posLeft"	2	"l"	"a"	"APproc"	2	"AP"	"no"	5	"a"	"blackFace3.bmp"	"800"	"black"	"2"	"+"	"1"	"a"	"a"	"361"	"positive"	"beauty"
2	1	3	2	2	5	"posLeft"	2	"l"	"a"	"APproc"	2	"AP"	"no"	6	"l"	"blackFace2.bmp"	"1000"	"black"	"1"	"+"	"0"	"l"	"a"	"312"	"negative"	"vomit"
2	1	3	2	2	5	"posLeft"	2	"l"	"a"	"APproc"	2	"AP"	"no"	7	"a"	"blackFace8.bmp"	"1200"	"black"	"1"	"+"	"0"	"a"	"l"	"456"	"positive"	"smile"
2	1	3	2	2	5	"posLeft"	2	"l"	"a"	"APproc"	2	"AP"	"no"	8	"l"	"whiteFace7.bmp"	"1200"	"white"	"1"	"+"	"0"	"l"	"a"	"431"	"negative"	"poison"
2	1	3	2	2	5	"posLeft"	2	"l"	"a"	"APproc"	2	"AP"	"no"	9	"a"	"blackFace8.bmp"	"800"	"black"	"1"	"+"	"0"	"a"	"l"	"479"	"positive"	"love"
2	1	3	2	2	5	"posLeft"	2	"l"	"a"	"APproc"	2	"AP"	"no"	10	"a"	"blackFace5.bmp"	"1000"	"black"	"1"	"+"	"0"	"a"	"l"	"382"	"positive"	"beauty"
2	1	3	2	2	5	"posLeft"	2	"l"	"a"	"APproc"	2	"AP"	"no"	11	"a"	"whiteFace7.bmp"	"1000"	"white"	"2"	"+"	"1"	"a"	"a"	"293"	"positive"	"paradise"
2	1	3	2	2	5	"posLeft"	2	"l"	"a"	"APproc"	2	"AP"	"no"	12	"l"	"blackFace1.bmp"	"1200"	"black"	"1"	"+"	"0"	"l"	"a"	"381"	"negative"	"vomit"
2	1	3	2	2	5	"posLeft"	2	"l"	"a"	"APproc"	2	"AP"	"no"	13	"l"	"whiteFace4.bmp"	"800"	"white"	"1"	"+"	"0"	"l"	"a"	"380"	"negative"	"vomit"
2	1	3	2	2	5	"posLeft"	2	"l"	"a"	"APproc"	2	"AP"	"no"	14	"a"	"whiteFace3.bmp"	"1200"	"white"	"1"	"+"	"0"	"a"	"l"	"323"	"positive"	"beauty"
2	1	3	2	2	5	"posLeft"	2	"l"	"a"	"APproc"	2	"AP"	"no"	15	"l"	"blackFace3.bmp"	"800"	"black"	"1"	"+"	"0"	"l"	"a"	"451"	"negative"	"sewage"
2	1	3	2	2	5	"posLeft"	2	"l"	"a"	"APproc"	2	"AP"	"no"	16	"a"	"blackFace5.bmp"	"1000"	"black"	"2"	"+"	"1"	"a"	"a"	"394"	"positive"	"love"
2	1	3	2	2	5	"posLeft"	2	"l"	"a"	"APproc"	2	"AP"	"no"	17	"l"	"whiteFace2.bmp"	"1200"	"white"	"1"	"+"	"0"	"l"	"a"	"345"	"negative"	"poison"
2	1	3	2	2	5	"posLeft"	2	"l"	"a"	"APproc"	2	"AP"	"no"	18	"l"	"whiteFace4.bmp"	"800"	"white"	"1"	"+"	"0"	"l"	"a"	"353"	"negative"	"sewage"
2	1	3	2	2	5	"posLeft"	2	"l"	"a"	"APproc"	2	"AP"	"no"	19	"a"	"whiteFace3.bmp"	"1000"	"white"	"2"	"+"	"1"	"a"	"a"	"336"	"positive"	"paradise"
2	1	3	2	2	5	"posLeft"	2	"l"	"a"	"APproc"	2	"AP"	"no"	20	"a"	"whiteFace4.bmp"	"1000"	"white"	"1"	"+"	"0"	"a"	"l"	"280"	"positive"	"smile"
2	1	3	2	2	5	"posLeft"	2	"l"	"a"	"APproc"	2	"AP"	"no"	21	"a"	"blackFace6.bmp"	"800"	"black"	"1"	"+"	"0"	"a"	"l"	"343"	"positive"	"paradise"
2	1	3	2	2	5	"posLeft"	2	"l"	"a"	"APproc"	2	"AP"	"no"	22	"l"	"blackFace4.bmp"	"1200"	"black"	"1"	"+"	"0"	"l"	"a"	"214"	"negative"	"poison"
2	1	3	2	2	5	"posLeft"	2	"l"	"a"	"APproc"	2	"AP"	"no"	23	"a"	"blackFace2.bmp"	"1200"	"black"	"2"	"+"	"1"	"a"	"a"	"422"	"positive"	"love"
2	1	3	2	2	5	"posLeft"	2	"l"	"a"	"APproc"	2	"AP"	"no"	24	"l"	"whiteFace7.bmp"	"1000"	"white"	"1"	"+"	"0"	"l"	"a"	"317"	"negative"	"vomit"
2	1	3	2	2	5	"posLeft"	2	"l"	"a"	"APproc"	2	"AP"	"no"	25	"a"	"blackFace5.bmp"	"800"	"black"	"2"	"+"	"1"	"a"	"a"	"380"	"positive"	"paradise"
2	1	3	2	2	5	"posLeft"	2	"l"	"a"	"APproc"	2	"AP"	"no"	26	"a"	"whiteFace8.bmp"	"800"	"white"	"2"	"+"	"1"	"a"	"a"	"396"	"positive"	"love"
2	1	3	2	2	5	"posLeft"	2	"l"	"a"	"APproc"	2	"AP"	"no"	27	"l"	"blackFace6.bmp"	"1200"	"black"	"2"	"+"	"1"	"l"	"l"	"339"	"negative"	"vomit"
2	1	3	2	2	5	"posLeft"	2	"l"	"a"	"APproc"	2	"AP"	"no"	28	"l"	"blackFace2.bmp"	"1000"	"black"	"2"	"+"	"1"	"l"	"l"	"354"	"negative"	"sewage"
2	1	3	2	2	5	"posLeft"	2	"l"	"a"	"APproc"	2	"AP"	"no"	29	"l"	"whiteFace1.bmp"	"1000"	"white"	"1"	"+"	"0"	"l"	"a"	"338"	"negative"	"sewage"
2	1	3	2	2	5	"posLeft"	2	"l"	"a"	"APproc"	2	"AP"	"no"	30	"a"	"whiteFace4.bmp"	"1200"	"white"	"2"	"+"	"1"	"a"	"a"	"425"	"positive"	"beauty"
2	1	3	2	2	5	"posLeft"	2	"l"	"a"	"APproc"	2	"AP"	"no"	31	"l"	"blackFace2.bmp"	"800"	"black"	"2"	"+"	"1"	"l"	"l"	"385"	"negative"	"garbage"
2	1	3	2	2	5	"posLeft"	2	"l"	"a"	"APproc"	2	"AP"	"no"	32	"a"	"whiteFace8.bmp"	"800"	"white"	"3"	"TOO SLOW"	"0"	"a"	""	"0"	"positive"	"beauty"
2	1	3	2	2	5	"posLeft"	2	"l"	"a"	"APproc"	2	"AP"	"no"	33	"a"	"whiteFace5.bmp"	"1000"	"white"	"3"	"TOO SLOW"	"0"	"a"	""	"0"	"positive"	"beauty"
2	1	3	2	2	5	"posLeft"	2	"l"	"a"	"APproc"	2	"AP"	"no"	34	"l"	"whiteFace5.bmp"	"1200"	"white"	"1"	"+"	"0"	"l"	"a"	"326"	"negative"	"sewage"
2	1	3	2	2	5	"posLeft"	2	"l"	"a"	"APproc"	2	"AP"	"no"	35	"l"	"whiteFace6.bmp"	"1000"	"white"	"2"	"+"	"1"	"l"	"l"	"357"	"negative"	"garbage"
2	1	3	2	2	5	"posLeft"	2	"l"	"a"	"APproc"	2	"AP"	"no"	36	"l"	"whiteFace1.bmp"	"1200"	"white"	"2"	"+"	"1"	"l"	"l"	"445"	"negative"	"garbage"
2	1	3	2	2	5	"posLeft"	2	"l"	"a"	"APproc"	2	"AP"	"no"	37	"l"	"blackFace5.bmp"	"800"	"black"	"2"	"+"	"1"	"l"	"l"	"427"	"negative"	"poison"
2	1	3	2	2	5	"posLeft"	2	"l"	"a"	"APproc"	2	"AP"	"no"	38	"a"	"blackFace1.bmp"	"800"	"black"	"1"	"+"	"0"	"a"	"l"	"346"	"positive"	"paradise"
2	1	3	2	2	5	"posLeft"	2	"l"	"a"	"APproc"	2	"AP"	"no"	39	"a"	"blackFace7.bmp"	"1200"	"black"	"2"	"+"	"1"	"a"	"a"	"458"	"positive"	"smile"
2	1	3	2	2	5	"posLeft"	2	"l"	"a"	"APproc"	2	"AP"	"no"	40	"a"	"whiteFace1.bmp"	"1000"	"white"	"2"	"+"	"1"	"a"	"a"	"345"	"positive"	"smile"
2	1	3	2	2	5	"posLeft"	2	"l"	"a"	"APproc"	2	"AP"	"no"	41	"l"	"whiteFace8.bmp"	"1200"	"white"	"1"	"+"	"0"	"l"	"a"	"377"	"negative"	"garbage"
2	1	3	2	2	5	"posLeft"	2	"l"	"a"	"APproc"	2	"AP"	"no"	42	"l"	"whiteFace4.bmp"	"800"	"white"	"3"	"TOO SLOW"	"0"	"l"	""	"0"	"negative"	"poison"
2	1	3	2	2	5	"posLeft"	2	"l"	"a"	"APproc"	2	"AP"	"no"	43	"a"	"blackFace3.bmp"	"1000"	"black"	"1"	"+"	"0"	"a"	"l"	"343"	"positive"	"love"
2	1	3	2	2	5	"posLeft"	2	"l"	"a"	"APproc"	2	"AP"	"no"	44	"l"	"whiteFace5.bmp"	"800"	"white"	"1"	"+"	"0"	"l"	"a"	"239"	"negative"	"poison"
2	1	3	2	2	5	"posLeft"	2	"l"	"a"	"APproc"	2	"AP"	"no"	45	"l"	"blackFace5.bmp"	"1000"	"black"	"2"	"+"	"1"	"l"	"l"	"326"	"negative"	"garbage"
2	1	3	2	2	5	"posLeft"	2	"l"	"a"	"APproc"	2	"AP"	"no"	46	"a"	"whiteFace1.bmp"	"1200"	"white"	"2"	"+"	"1"	"a"	"a"	"261"	"positive"	"love"
2	1	3	2	2	5	"posLeft"	2	"l"	"a"	"APproc"	2	"AP"	"no"	47	"l"	"blackFace8.bmp"	"800"	"black"	"2"	"+"	"1"	"l"	"l"	"333"	"negative"	"garbage"
2	1	3	2	2	5	"posLeft"	2	"l"	"a"	"APproc"	2	"AP"	"no"	48	"l"	"blackFace6.bmp"	"1200"	"black"	"2"	"+"	"1"	"l"	"l"	"284"	"negative"	"sewage"
2	1	3	2	2	5	"posLeft"	2	"l"	"a"	"APproc"	2	"AP"	"no"	49	"a"	"whiteFace2.bmp"	"1000"	"white"	"2"	"+"	"1"	"a"	"a"	"339"	"positive"	"smile"
2	1	3	2	2	5	"posLeft"	2	"l"	"a"	"APproc"	2	"AP"	"no"	50	"l"	"blackFace6.bmp"	"1200"	"black"	"1"	"+"	"0"	"l"	"a"	"355"	"negative"	"garbage"
2	1	3	2	2	5	"posLeft"	2	"l"	"a"	"APproc"	2	"AP"	"no"	51	"l"	"blackFace5.bmp"	"1000"	"black"	"2"	"+"	"1"	"l"	"l"	"314"	"negative"	"vomit"
2	1	3	2	2	5	"posLeft"	2	"l"	"a"	"APproc"	2	"AP"	"no"	52	"l"	"blackFace7.bmp"	"800"	"black"	"2"	"+"	"1"	"l"	"l"	"402"	"negative"	"vomit"
2	1	3	2	2	5	"posLeft"	2	"l"	"a"	"APproc"	2	"AP"	"no"	53	"l"	"whiteFace3.bmp"	"1200"	"white"	"1"	"+"	"0"	"l"	"a"	"393"	"negative"	"garbage"
2	1	3	2	2	5	"posLeft"	2	"l"	"a"	"APproc"	2	"AP"	"no"	54	"a"	"whiteFace2.bmp"	"1000"	"white"	"1"	"+"	"0"	"a"	"l"	"248"	"positive"	"beauty"
2	1	3	2	2	5	"posLeft"	2	"l"	"a"	"APproc"	2	"AP"	"no"	55	"a"	"whiteFace6.bmp"	"800"	"white"	"3"	"TOO SLOW"	"0"	"a"	""	"0"	"positive"	"beauty"
2	1	3	2	2	5	"posLeft"	2	"l"	"a"	"APproc"	2	"AP"	"no"	56	"a"	"whiteFace4.bmp"	"1000"	"white"	"3"	"TOO SLOW"	"0"	"a"	""	"0"	"positive"	"paradise"
2	1	3	2	2	5	"posLeft"	2	"l"	"a"	"APproc"	2	"AP"	"no"	57	"a"	"whiteFace3.bmp"	"800"	"white"	"2"	"+"	"1"	"a"	"a"	"254"	"positive"	"love"
2	1	3	2	2	5	"posLeft"	2	"l"	"a"	"APproc"	2	"AP"	"no"	58	"l"	"blackFace5.bmp"	"1200"	"black"	"2"	"+"	"1"	"l"	"l"	"206"	"negative"	"sewage"
2	1	3	2	2	5	"posLeft"	2	"l"	"a"	"APproc"	2	"AP"	"no"	59	"l"	"whiteFace1.bmp"	"1000"	"white"	"1"	"+"	"0"	"l"	"a"	"317"	"negative"	"poison"
2	1	3	2	2	5	"posLeft"	2	"l"	"a"	"APproc"	2	"AP"	"no"	60	"a"	"whiteFace6.bmp"	"1200"	"white"	"1"	"+"	"0"	"a"	"l"	"284"	"positive"	"smile"
2	1	3	2	2	5	"posLeft"	2	"l"	"a"	"APproc"	2	"AP"	"no"	61	"l"	"whiteFace2.bmp"	"800"	"white"	"2"	"+"	"1"	"l"	"l"	"436"	"negative"	"garbage"
2	1	3	2	2	5	"posLeft"	2	"l"	"a"	"APproc"	2	"AP"	"no"	62	"a"	"blackFace6.bmp"	"800"	"black"	"2"	"+"	"1"	"a"	"a"	"355"	"positive"	"beauty"
2	1	3	2	2	5	"posLeft"	2	"l"	"a"	"APproc"	2	"AP"	"no"	63	"l"	"blackFace1.bmp"	"1000"	"black"	"2"	"+"	"1"	"l"	"l"	"331"	"negative"	"poison"
2	1	3	2	2	5	"posLeft"	2	"l"	"a"	"APproc"	2	"AP"	"no"	64	"a"	"blackFace6.bmp"	"1200"	"black"	"2"	"+"	"1"	"a"	"a"	"266"	"positive"	"love"
2	1	3	2	2	5	"posLeft"	2	"l"	"a"	"APproc"	2	"AP"	"no"	65	"l"	"whiteFace6.bmp"	"1000"	"white"	"2"	"+"	"1"	"l"	"l"	"281"	"negative"	"poison"
2	1	3	2	2	5	"posLeft"	2	"l"	"a"	"APproc"	2	"AP"	"no"	66	"l"	"blackFace8.bmp"	"1200"	"black"	"2"	"+"	"1"	"l"	"l"	"344"	"negative"	"poison"
2	1	3	2	2	5	"posLeft"	2	"l"	"a"	"APproc"	2	"AP"	"no"	67	"a"	"whiteFace5.bmp"	"800"	"white"	"2"	"+"	"1"	"a"	"a"	"248"	"positive"	"smile"
2	1	3	2	2	5	"posLeft"	2	"l"	"a"	"APproc"	2	"AP"	"no"	68	"l"	"blackFace3.bmp"	"1200"	"black"	"1"	"+"	"0"	"l"	"a"	"422"	"negative"	"vomit"
2	1	3	2	2	5	"posLeft"	2	"l"	"a"	"APproc"	2	"AP"	"no"	69	"l"	"blackFace8.bmp"	"800"	"black"	"2"	"+"	"1"	"l"	"l"	"446"	"negative"	"sewage"
2	1	3	2	2	5	"posLeft"	2	"l"	"a"	"APproc"	2	"AP"	"no"	70	"l"	"blackFace4.bmp"	"1000"	"black"	"2"	"+"	"1"	"l"	"l"	"237"	"negative"	"sewage"
2	1	3	2	2	5	"posLeft"	2	"l"	"a"	"APproc"	2	"AP"	"no"	71	"l"	"whiteFace7.bmp"	"800"	"white"	"1"	"+"	"0"	"l"	"a"	"356"	"negative"	"sewage"
2	1	3	2	2	5	"posLeft"	2	"l"	"a"	"APproc"	2	"AP"	"no"	72	"a"	"blackFace8.bmp"	"1200"	"black"	"1"	"+"	"0"	"a"	"l"	"276"	"positive"	"beauty"
2	1	3	2	2	5	"posLeft"	2	"l"	"a"	"APproc"	2	"AP"	"no"	73	"l"	"whiteFace7.bmp"	"1000"	"white"	"1"	"+"	"0"	"l"	"a"	"267"	"negative"	"garbage"
2	1	3	2	2	5	"posLeft"	2	"l"	"a"	"APproc"	2	"AP"	"no"	74	"a"	"blackFace3.bmp"	"800"	"black"	"1"	"+"	"0"	"a"	"l"	"227"	"positive"	"smile"
2	1	3	2	2	5	"posLeft"	2	"l"	"a"	"APproc"	2	"AP"	"no"	75	"a"	"whiteFace3.bmp"	"1200"	"white"	"2"	"+"	"1"	"a"	"a"	"346"	"positive"	"smile"
2	1	3	2	2	5	"posLeft"	2	"l"	"a"	"APproc"	2	"AP"	"no"	76	"a"	"whiteFace8.bmp"	"1000"	"white"	"1"	"+"	"0"	"a"	"l"	"321"	"positive"	"smile"
2	1	3	2	2	5	"posLeft"	2	"l"	"a"	"APproc"	2	"AP"	"no"	77	"l"	"whiteFace6.bmp"	"800"	"white"	"1"	"+"	"0"	"l"	"a"	"321"	"negative"	"vomit"
2	1	3	2	2	5	"posLeft"	2	"l"	"a"	"APproc"	2	"AP"	"no"	78	"a"	"whiteFace6.bmp"	"1200"	"white"	"1"	"+"	"0"	"a"	"l"	"384"	"positive"	"paradise"
2	1	3	2	2	5	"posLeft"	2	"l"	"a"	"APproc"	2	"AP"	"no"	79	"a"	"blackFace2.bmp"	"1000"	"black"	"3"	"TOO SLOW"	"0"	"a"	""	"0"	"positive"	"smile"
2	1	3	2	2	5	"posLeft"	2	"l"	"a"	"APproc"	2	"AP"	"no"	80	"l"	"blackFace3.bmp"	"800"	"black"	"1"	"+"	"0"	"l"	"a"	"302"	"negative"	"garbage"
2	1	3	2	2	5	"posLeft"	2	"l"	"a"	"APproc"	2	"AP"	"no"	81	"l"	"blackFace7.bmp"	"1200"	"black"	"2"	"+"	"1"	"l"	"l"	"253"	"negative"	"sewage"
2	1	3	2	2	5	"posLeft"	2	"l"	"a"	"APproc"	2	"AP"	"no"	82	"a"	"blackFace2.bmp"	"1000"	"black"	"1"	"+"	"0"	"a"	"l"	"373"	"positive"	"beauty"
2	1	3	2	2	5	"posLeft"	2	"l"	"a"	"APproc"	2	"AP"	"no"	83	"a"	"whiteFace7.bmp"	"800"	"white"	"2"	"+"	"1"	"a"	"a"	"308"	"positive"	"love"
2	1	3	2	2	5	"posLeft"	2	"l"	"a"	"APproc"	2	"AP"	"no"	84	"a"	"whiteFace8.bmp"	"1000"	"white"	"2"	"+"	"1"	"a"	"a"	"300"	"positive"	"paradise"
2	1	3	2	2	5	"posLeft"	2	"l"	"a"	"APproc"	2	"AP"	"no"	85	"a"	"blackFace3.bmp"	"1200"	"black"	"2"	"+"	"1"	"a"	"a"	"347"	"positive"	"paradise"
2	1	3	2	2	5	"posLeft"	2	"l"	"a"	"APproc"	2	"AP"	"no"	86	"l"	"whiteFace4.bmp"	"1200"	"white"	"1"	"+"	"0"	"l"	"a"	"386"	"negative"	"garbage"
2	1	3	2	2	5	"posLeft"	2	"l"	"a"	"APproc"	2	"AP"	"no"	87	"l"	"blackFace1.bmp"	"1000"	"black"	"2"	"+"	"1"	"l"	"l"	"370"	"negative"	"garbage"
2	1	3	2	2	5	"posLeft"	2	"l"	"a"	"APproc"	2	"AP"	"no"	88	"l"	"whiteFace1.bmp"	"800"	"white"	"1"	"+"	"0"	"l"	"a"	"353"	"negative"	"vomit"
2	1	3	2	2	5	"posLeft"	2	"l"	"a"	"APproc"	2	"AP"	"no"	89	"a"	"whiteFace5.bmp"	"800"	"white"	"2"	"+"	"1"	"a"	"a"	"472"	"positive"	"paradise"
2	1	3	2	2	5	"posLeft"	2	"l"	"a"	"APproc"	2	"AP"	"no"	90	"a"	"blackFace2.bmp"	"1200"	"black"	"1"	"+"	"0"	"a"	"l"	"328"	"positive"	"paradise"
2	1	3	2	2	5	"posLeft"	2	"l"	"a"	"APproc"	2	"AP"	"no"	91	"l"	"whiteFace5.bmp"	"1000"	"white"	"1"	"+"	"0"	"l"	"a"	"287"	"negative"	"garbage"
2	1	3	2	2	5	"posLeft"	2	"l"	"a"	"APproc"	2	"AP"	"no"	92	"l"	"whiteFace2.bmp"	"800"	"white"	"1"	"+"	"0"	"l"	"a"	"303"	"negative"	"vomit"
2	1	3	2	2	5	"posLeft"	2	"l"	"a"	"APproc"	2	"AP"	"no"	93	"l"	"whiteFace8.bmp"	"1200"	"white"	"2"	"+"	"1"	"l"	"l"	"326"	"negative"	"sewage"
2	1	3	2	2	5	"posLeft"	2	"l"	"a"	"APproc"	2	"AP"	"no"	94	"a"	"blackFace1.bmp"	"1000"	"black"	"2"	"+"	"1"	"a"	"a"	"317"	"positive"	"beauty"
2	1	3	2	2	5	"posLeft"	2	"l"	"a"	"APproc"	2	"AP"	"no"	95	"l"	"blackFace1.bmp"	"1200"	"black"	"2"	"+"	"1"	"l"	"l"	"285"	"negative"	"sewage"
2	1	3	2	2	5	"posLeft"	2	"l"	"a"	"APproc"	2	"AP"	"no"	96	"l"	"whiteFace3.bmp"	"800"	"white"	"1"	"+"	"0"	"l"	"a"	"228"	"negative"	"sewage"
2	1	3	2	2	5	"posLeft"	2	"l"	"a"	"APproc"	2	"AP"	"no"	97	"a"	"whiteFace6.bmp"	"1000"	"white"	"2"	"+"	"1"	"a"	"a"	"266"	"positive"	"love"
2	1	3	2	2	5	"posLeft"	2	"l"	"a"	"APproc"	2	"AP"	"no"	98	"a"	"blackFace8.bmp"	"1000"	"black"	"1"	"+"	"0"	"a"	"l"	"289"	"positive"	"paradise"
2	1	3	2	2	5	"posLeft"	2	"l"	"a"	"APproc"	2	"AP"	"no"	99	"a"	"whiteFace5.bmp"	"800"	"white"	"2"	"+"	"1"	"a"	"a"	"336"	"positive"	"love"
2	1	3	2	2	5	"posLeft"	2	"l"	"a"	"APproc"	2	"AP"	"no"	100	"a"	"blackFace4.bmp"	"1200"	"black"	"1"	"+"	"0"	"a"	"l"	"280"	"positive"	"smile"
2	1	3	2	2	5	"posLeft"	2	"l"	"a"	"APproc"	2	"AP"	"no"	101	"a"	"blackFace4.bmp"	"800"	"black"	"2"	"+"	"1"	"a"	"a"	"399"	"positive"	"beauty"
2	1	3	2	2	5	"posLeft"	2	"l"	"a"	"APproc"	2	"AP"	"no"	102	"a"	"blackFace6.bmp"	"1200"	"black"	"2"	"+"	"1"	"a"	"a"	"359"	"positive"	"smile"
2	1	3	2	2	5	"posLeft"	2	"l"	"a"	"APproc"	2	"AP"	"no"	103	"a"	"blackFace4.bmp"	"1000"	"black"	"1"	"+"	"0"	"a"	"l"	"278"	"positive"	"love"
2	1	3	2	2	5	"posLeft"	2	"l"	"a"	"APproc"	2	"AP"	"no"	104	"a"	"blackFace7.bmp"	"800"	"black"	"2"	"+"	"1"	"a"	"a"	"285"	"positive"	"beauty"
2	1	3	2	2	5	"posLeft"	2	"l"	"a"	"APproc"	2	"AP"	"no"	105	"l"	"blackFace7.bmp"	"1200"	"black"	"2"	"+"	"1"	"l"	"l"	"341"	"negative"	"poison"
2	1	3	2	2	5	"posLeft"	2	"l"	"a"	"APproc"	2	"AP"	"no"	106	"l"	"whiteFace2.bmp"	"1000"	"white"	"2"	"+"	"1"	"l"	"l"	"300"	"negative"	"sewage"
2	1	3	2	2	5	"posLeft"	2	"l"	"a"	"APproc"	2	"AP"	"no"	107	"a"	"whiteFace2.bmp"	"1000"	"white"	"2"	"+"	"1"	"a"	"a"	"219"	"positive"	"paradise"
2	1	3	2	2	5	"posLeft"	2	"l"	"a"	"APproc"	2	"AP"	"no"	108	"l"	"blackFace4.bmp"	"1200"	"black"	"2"	"+"	"1"	"l"	"l"	"243"	"negative"	"garbage"
2	1	3	2	2	5	"posLeft"	2	"l"	"a"	"APproc"	2	"AP"	"no"	109	"l"	"whiteFace5.bmp"	"800"	"white"	"1"	"+"	"0"	"l"	"a"	"274"	"negative"	"vomit"
2	1	3	2	2	5	"posLeft"	2	"l"	"a"	"APproc"	2	"AP"	"no"	110	"l"	"whiteFace8.bmp"	"1200"	"white"	"2"	"+"	"1"	"l"	"l"	"481"	"negative"	"poison"
2	1	3	2	2	5	"posLeft"	2	"l"	"a"	"APproc"	2	"AP"	"no"	111	"l"	"whiteFace6.bmp"	"1000"	"white"	"2"	"+"	"1"	"l"	"l"	"233"	"negative"	"sewage"
2	1	3	2	2	5	"posLeft"	2	"l"	"a"	"APproc"	2	"AP"	"no"	112	"l"	"blackFace6.bmp"	"800"	"black"	"2"	"+"	"1"	"l"	"l"	"304"	"negative"	"poison"
2	1	3	2	2	5	"posLeft"	2	"l"	"a"	"APproc"	2	"AP"	"no"	113	"l"	"blackFace4.bmp"	"1200"	"black"	"1"	"+"	"0"	"l"	"a"	"344"	"negative"	"vomit"
2	1	3	2	2	5	"posLeft"	2	"l"	"a"	"APproc"	2	"AP"	"no"	114	"a"	"whiteFace1.bmp"	"1000"	"white"	"2"	"+"	"1"	"a"	"a"	"415"	"positive"	"paradise"
2	1	3	2	2	5	"posLeft"	2	"l"	"a"	"APproc"	2	"AP"	"no"	115	"a"	"whiteFace4.bmp"	"800"	"white"	"2"	"+"	"1"	"a"	"a"	"430"	"positive"	"love"
2	1	3	2	2	5	"posLeft"	2	"l"	"a"	"APproc"	2	"AP"	"no"	116	"a"	"blackFace1.bmp"	"1200"	"black"	"1"	"+"	"0"	"a"	"l"	"222"	"positive"	"love"
2	1	3	2	2	5	"posLeft"	2	"l"	"a"	"APproc"	2	"AP"	"no"	117	"a"	"whiteFace2.bmp"	"800"	"white"	"2"	"+"	"1"	"a"	"a"	"421"	"positive"	"love"
2	1	3	2	2	5	"posLeft"	2	"l"	"a"	"APproc"	2	"AP"	"no"	118	"a"	"blackFace5.bmp"	"1000"	"black"	"2"	"+"	"1"	"a"	"a"	"428"	"positive"	"smile"
2	1	3	2	2	5	"posLeft"	2	"l"	"a"	"APproc"	2	"AP"	"no"	119	"a"	"whiteFace7.bmp"	"1000"	"white"	"2"	"+"	"1"	"a"	"a"	"436"	"positive"	"beauty"
2	1	3	2	2	5	"posLeft"	2	"l"	"a"	"APproc"	2	"AP"	"no"	120	"l"	"blackFace7.bmp"	"800"	"black"	"1"	"+"	"0"	"l"	"a"	"267"	"negative"	"garbage"
2	1	3	2	2	5	"posLeft"	2	"l"	"a"	"APproc"	2	"AP"	"no"	121	"a"	"whiteFace1.bmp"	"1200"	"white"	"1"	"+"	"0"	"a"	"l"	"355"	"positive"	"beauty"
2	1	3	2	2	5	"posLeft"	2	"l"	"a"	"APproc"	2	"AP"	"no"	122	"l"	"blackFace3.bmp"	"800"	"black"	"1"	"+"	"0"	"l"	"a"	"354"	"negative"	"poison"
2	1	3	2	2	5	"posLeft"	2	"l"	"a"	"APproc"	2	"AP"	"no"	123	"a"	"blackFace7.bmp"	"1000"	"black"	"2"	"+"	"1"	"a"	"a"	"273"	"positive"	"paradise"
2	1	3	2	2	5	"posLeft"	2	"l"	"a"	"APproc"	2	"AP"	"no"	124	"l"	"blackFace8.bmp"	"1200"	"black"	"3"	"TOO SLOW"	"0"	"l"	""	"0"	"negative"	"vomit"
2	1	3	2	2	5	"posLeft"	2	"l"	"a"	"APproc"	2	"AP"	"no"	125	"l"	"blackFace2.bmp"	"1000"	"black"	"2"	"+"	"1"	"l"	"l"	"320"	"negative"	"poison"
2	1	3	2	2	5	"posLeft"	2	"l"	"a"	"APproc"	2	"AP"	"no"	126	"a"	"whiteFace7.bmp"	"800"	"white"	"2"	"+"	"1"	"a"	"a"	"279"	"positive"	"smile"
2	1	3	2	2	5	"posLeft"	2	"l"	"a"	"APproc"	2	"AP"	"no"	127	"l"	"whiteFace3.bmp"	"1200"	"white"	"1"	"+"	"0"	"l"	"a"	"430"	"negative"	"poison"
2	1	3	2	2	5	"posLeft"	2	"l"	"a"	"APproc"	2	"AP"	"no"	128	"l"	"whiteFace3.bmp"	"800"	"white"	"2"	"+"	"1"	"l"	"l"	"493"	"negative"	"vomit"
2	1	3	2	2	5	"posLeft"	2	"l"	"a"	"APproc"	2	"AP"	"no"	129	"l"	"whiteFace6.bmp"	"1200"	"white"	"2"	"+"	"1"	"l"	"l"	"237"	"negative"	"vomit"
2	1	3	2	2	5	"posLeft"	2	"l"	"a"	"APproc"	2	"AP"	"no"	130	"l"	"blackFace1.bmp"	"1000"	"black"	"2"	"+"	"1"	"l"	"l"	"356"	"negative"	"poison"
2	1	3	2	2	5	"posLeft"	2	"l"	"a"	"APproc"	2	"AP"	"no"	131	"a"	"blackFace3.bmp"	"1000"	"black"	"1"	"+"	"0"	"a"	"l"	"267"	"positive"	"love"
2	1	3	2	2	5	"posLeft"	2	"l"	"a"	"APproc"	2	"AP"	"no"	132	"a"	"blackFace7.bmp"	"800"	"black"	"1"	"+"	"0"	"a"	"l"	"227"	"positive"	"beauty"
2	1	3	2	2	5	"posLeft"	2	"l"	"a"	"APproc"	2	"AP"	"no"	133	"l"	"blackFace7.bmp"	"1200"	"black"	"2"	"+"	"1"	"l"	"l"	"370"	"negative"	"garbage"
2	1	3	2	2	5	"posLeft"	2	"l"	"a"	"APproc"	2	"AP"	"no"	134	"a"	"blackFace5.bmp"	"1000"	"black"	"1"	"+"	"0"	"a"	"l"	"209"	"positive"	"beauty"
2	1	3	2	2	5	"posLeft"	2	"l"	"a"	"APproc"	2	"AP"	"no"	135	"a"	"whiteFace3.bmp"	"800"	"white"	"1"	"+"	"0"	"a"	"l"	"233"	"positive"	"paradise"
2	1	3	2	2	5	"posLeft"	2	"l"	"a"	"APproc"	2	"AP"	"no"	136	"a"	"whiteFace4.bmp"	"1200"	"white"	"2"	"+"	"1"	"a"	"a"	"400"	"positive"	"paradise"
2	1	3	2	2	5	"posLeft"	2	"l"	"a"	"APproc"	2	"AP"	"no"	137	"a"	"whiteFace4.bmp"	"800"	"white"	"2"	"+"	"1"	"a"	"a"	"215"	"positive"	"love"
2	1	3	2	2	5	"posLeft"	2	"l"	"a"	"APproc"	2	"AP"	"no"	138	"a"	"blackFace4.bmp"	"1200"	"black"	"1"	"+"	"0"	"a"	"l"	"223"	"positive"	"paradise"
2	1	3	2	2	5	"posLeft"	2	"l"	"a"	"APproc"	2	"AP"	"no"	139	"a"	"blackFace1.bmp"	"1000"	"black"	"2"	"+"	"1"	"a"	"a"	"262"	"positive"	"smile"
2	1	3	2	2	5	"posLeft"	2	"l"	"a"	"APproc"	2	"AP"	"no"	140	"a"	"whiteFace8.bmp"	"1200"	"white"	"2"	"+"	"1"	"a"	"a"	"277"	"positive"	"love"
2	1	3	2	2	5	"posLeft"	2	"l"	"a"	"APproc"	2	"AP"	"no"	141	"l"	"whiteFace5.bmp"	"1000"	"white"	"2"	"+"	"1"	"l"	"l"	"349"	"negative"	"garbage"
2	1	3	2	2	5	"posLeft"	2	"l"	"a"	"APproc"	2	"AP"	"no"	142	"a"	"blackFace4.bmp"	"800"	"black"	"1"	"+"	"0"	"a"	"l"	"292"	"positive"	"smile"
2	1	3	2	2	5	"posLeft"	2	"l"	"a"	"APproc"	2	"AP"	"no"	143	"l"	"blackFace7.bmp"	"800"	"black"	"2"	"+"	"1"	"l"	"l"	"444"	"negative"	"sewage"
2	1	3	2	2	5	"posLeft"	2	"l"	"a"	"APproc"	2	"AP"	"no"	144	"a"	"blackFace1.bmp"	"1000"	"black"	"1"	"+"	"0"	"a"	"l"	"331"	"positive"	"love"
2	1	3	2	2	5	"posLeft"	2	"l"	"a"	"APproc"	2	"AP"	"no"	145	"l"	"blackFace2.bmp"	"1200"	"black"	"2"	"+"	"1"	"l"	"l"	"314"	"negative"	"vomit"
2	1	3	2	2	5	"posLeft"	2	"l"	"a"	"APproc"	2	"AP"	"no"	146	"l"	"blackFace6.bmp"	"1000"	"black"	"2"	"+"	"1"	"l"	"l"	"314"	"negative"	"garbage"
2	1	3	2	2	5	"posLeft"	2	"l"	"a"	"APproc"	2	"AP"	"no"	147	"l"	"blackFace3.bmp"	"800"	"black"	"2"	"+"	"1"	"l"	"l"	"329"	"negative"	"vomit"
2	1	3	2	2	5	"posLeft"	2	"l"	"a"	"APproc"	2	"AP"	"no"	148	"a"	"blackFace8.bmp"	"1200"	"black"	"1"	"+"	"0"	"a"	"l"	"296"	"positive"	"beauty"
2	1	3	2	2	5	"posLeft"	2	"l"	"a"	"APproc"	2	"AP"	"no"	149	"l"	"whiteFace2.bmp"	"1200"	"white"	"1"	"+"	"0"	"l"	"a"	"344"	"negative"	"vomit"
2	1	3	2	2	5	"posLeft"	2	"l"	"a"	"APproc"	2	"AP"	"no"	150	"a"	"whiteFace6.bmp"	"1000"	"white"	"3"	"TOO SLOW"	"0"	"a"	""	"0"	"positive"	"beauty"
2	1	3	2	2	5	"posLeft"	2	"l"	"a"	"APproc"	2	"AP"	"no"	151	"l"	"whiteFace8.bmp"	"800"	"white"	"2"	"+"	"1"	"l"	"l"	"318"	"negative"	"poison"
2	1	3	2	2	5	"posLeft"	2	"l"	"a"	"APproc"	2	"AP"	"no"	152	"l"	"blackFace7.bmp"	"1000"	"black"	"1"	"+"	"0"	"l"	"a"	"454"	"negative"	"poison"
2	1	3	2	2	5	"posLeft"	2	"l"	"a"	"APproc"	2	"AP"	"no"	153	"l"	"blackFace1.bmp"	"1200"	"black"	"2"	"+"	"1"	"l"	"l"	"389"	"negative"	"sewage"
2	1	3	2	2	5	"posLeft"	2	"l"	"a"	"APproc"	2	"AP"	"no"	154	"l"	"whiteFace4.bmp"	"800"	"white"	"2"	"+"	"1"	"l"	"l"	"357"	"negative"	"poison"
2	1	3	2	2	5	"posLeft"	2	"l"	"a"	"APproc"	2	"AP"	"no"	155	"a"	"blackFace3.bmp"	"1000"	"black"	"1"	"+"	"0"	"a"	"l"	"308"	"positive"	"beauty"
2	1	3	2	2	5	"posLeft"	2	"l"	"a"	"APproc"	2	"AP"	"no"	156	"a"	"blackFace2.bmp"	"1200"	"black"	"1"	"+"	"0"	"a"	"l"	"331"	"positive"	"smile"
2	1	3	2	2	5	"posLeft"	2	"l"	"a"	"APproc"	2	"AP"	"no"	157	"l"	"blackFace6.bmp"	"800"	"black"	"1"	"+"	"0"	"l"	"a"	"275"	"negative"	"sewage"
2	1	3	2	2	5	"posLeft"	2	"l"	"a"	"APproc"	2	"AP"	"no"	158	"a"	"whiteFace8.bmp"	"1000"	"white"	"1"	"+"	"0"	"a"	"l"	"242"	"positive"	"paradise"
2	1	3	2	2	5	"posLeft"	2	"l"	"a"	"APproc"	2	"AP"	"no"	159	"l"	"whiteFace2.bmp"	"800"	"white"	"2"	"+"	"1"	"l"	"l"	"432"	"negative"	"poison"
2	1	3	2	2	5	"posLeft"	2	"l"	"a"	"APproc"	2	"AP"	"no"	160	"a"	"whiteFace5.bmp"	"1200"	"white"	"1"	"+"	"0"	"a"	"l"	"401"	"positive"	"love"
2	1	3	2	2	5	"posLeft"	2	"l"	"a"	"APproc"	2	"AP"	"no"	161	"a"	"whiteFace4.bmp"	"1000"	"white"	"2"	"+"	"1"	"a"	"a"	"391"	"positive"	"beauty"
2	1	3	2	2	5	"posLeft"	2	"l"	"a"	"APproc"	2	"AP"	"no"	162	"l"	"whiteFace4.bmp"	"800"	"white"	"1"	"+"	"0"	"l"	"a"	"286"	"negative"	"garbage"
2	1	3	2	2	5	"posLeft"	2	"l"	"a"	"APproc"	2	"AP"	"no"	163	"l"	"whiteFace7.bmp"	"1200"	"white"	"2"	"+"	"1"	"l"	"l"	"198"	"negative"	"garbage"
2	1	3	2	2	5	"posLeft"	2	"l"	"a"	"APproc"	2	"AP"	"no"	164	"a"	"whiteFace3.bmp"	"1000"	"white"	"1"	"+"	"0"	"a"	"l"	"349"	"positive"	"smile"
2	1	3	2	2	5	"posLeft"	2	"l"	"a"	"APproc"	2	"AP"	"no"	165	"a"	"whiteFace5.bmp"	"800"	"white"	"2"	"+"	"1"	"a"	"a"	"253"	"positive"	"beauty"
2	1	3	2	2	5	"posLeft"	2	"l"	"a"	"APproc"	2	"AP"	"no"	166	"a"	"whiteFace7.bmp"	"1200"	"white"	"1"	"+"	"0"	"a"	"l"	"396"	"positive"	"love"
2	1	3	2	2	5	"posLeft"	2	"l"	"a"	"APproc"	2	"AP"	"no"	167	"l"	"whiteFace6.bmp"	"800"	"white"	"1"	"+"	"0"	"l"	"a"	"355"	"negative"	"garbage"
2	1	3	2	2	5	"posLeft"	2	"l"	"a"	"APproc"	2	"AP"	"no"	168	"a"	"blackFace6.bmp"	"1200"	"black"	"2"	"+"	"1"	"a"	"a"	"275"	"positive"	"paradise"
2	1	3	2	2	5	"posLeft"	2	"l"	"a"	"APproc"	2	"AP"	"no"	169	"l"	"whiteFace6.bmp"	"1000"	"white"	"1"	"+"	"0"	"l"	"a"	"338"	"negative"	"sewage"
2	1	3	2	2	5	"posLeft"	2	"l"	"a"	"APproc"	2	"AP"	"no"	170	"l"	"whiteFace5.bmp"	"800"	"white"	"2"	"+"	"1"	"l"	"l"	"369"	"negative"	"poison"
2	1	3	2	2	5	"posLeft"	2	"l"	"a"	"APproc"	2	"AP"	"no"	171	"a"	"whiteFace6.bmp"	"1000"	"white"	"1"	"+"	"0"	"a"	"l"	"473"	"positive"	"love"
2	1	3	2	2	5	"posLeft"	2	"l"	"a"	"APproc"	2	"AP"	"no"	172	"l"	"blackFace5.bmp"	"1200"	"black"	"1"	"+"	"0"	"l"	"a"	"344"	"negative"	"poison"
2	1	3	2	2	5	"posLeft"	2	"l"	"a"	"APproc"	2	"AP"	"no"	173	"l"	"blackFace2.bmp"	"1200"	"black"	"2"	"+"	"1"	"l"	"l"	"295"	"negative"	"sewage"
2	1	3	2	2	5	"posLeft"	2	"l"	"a"	"APproc"	2	"AP"	"no"	174	"a"	"blackFace2.bmp"	"800"	"black"	"1"	"+"	"0"	"a"	"l"	"335"	"positive"	"beauty"
2	1	3	2	2	5	"posLeft"	2	"l"	"a"	"APproc"	2	"AP"	"no"	175	"l"	"blackFace8.bmp"	"1000"	"black"	"1"	"+"	"0"	"l"	"a"	"326"	"negative"	"vomit"
2	1	3	2	2	5	"posLeft"	2	"l"	"a"	"APproc"	2	"AP"	"no"	176	"l"	"blackFace4.bmp"	"1000"	"black"	"2"	"+"	"1"	"l"	"l"	"366"	"negative"	"garbage"
2	1	3	2	2	5	"posLeft"	2	"l"	"a"	"APproc"	2	"AP"	"no"	177	"l"	"blackFace4.bmp"	"1200"	"black"	"1"	"+"	"0"	"l"	"a"	"333"	"negative"	"sewage"
2	1	3	2	2	5	"posLeft"	2	"l"	"a"	"APproc"	2	"AP"	"no"	178	"l"	"whiteFace1.bmp"	"800"	"white"	"3"	"TOO SLOW"	"0"	"l"	""	"0"	"negative"	"poison"
2	1	3	2	2	5	"posLeft"	2	"l"	"a"	"APproc"	2	"AP"	"no"	179	"a"	"whiteFace8.bmp"	"1200"	"white"	"2"	"+"	"1"	"a"	"a"	"491"	"positive"	"beauty"
2	1	3	2	2	5	"posLeft"	2	"l"	"a"	"APproc"	2	"AP"	"no"	180	"l"	"whiteFace6.bmp"	"800"	"white"	"2"	"+"	"1"	"l"	"l"	"426"	"negative"	"poison"
2	1	3	2	2	5	"posLeft"	2	"l"	"a"	"APproc"	2	"AP"	"no"	181	"a"	"blackFace2.bmp"	"1000"	"black"	"2"	"+"	"1"	"a"	"a"	"290"	"positive"	"love"
2	1	3	2	2	5	"posLeft"	2	"l"	"a"	"APproc"	2	"AP"	"no"	182	"a"	"blackFace4.bmp"	"1200"	"black"	"2"	"+"	"1"	"a"	"a"	"361"	"positive"	"beauty"
2	1	3	2	2	5	"posLeft"	2	"l"	"a"	"APproc"	2	"AP"	"no"	183	"l"	"blackFace1.bmp"	"1000"	"black"	"1"	"+"	"0"	"l"	"a"	"304"	"negative"	"garbage"
2	1	3	2	2	5	"posLeft"	2	"l"	"a"	"APproc"	2	"AP"	"no"	184	"l"	"blackFace3.bmp"	"800"	"black"	"2"	"+"	"1"	"l"	"l"	"344"	"negative"	"garbage"
2	1	3	2	2	5	"posLeft"	2	"l"	"a"	"APproc"	2	"AP"	"no"	185	"a"	"blackFace4.bmp"	"1000"	"black"	"1"	"+"	"0"	"a"	"l"	"375"	"positive"	"love"
2	1	3	2	2	5	"posLeft"	2	"l"	"a"	"APproc"	2	"AP"	"no"	186	"a"	"blackFace7.bmp"	"1200"	"black"	"1"	"+"	"0"	"a"	"l"	"391"	"positive"	"paradise"
2	1	3	2	2	5	"posLeft"	2	"l"	"a"	"APproc"	2	"AP"	"no"	187	"a"	"whiteFace5.bmp"	"800"	"white"	"2"	"+"	"1"	"a"	"a"	"270"	"positive"	"paradise"
2	1	3	2	2	5	"posLeft"	2	"l"	"a"	"APproc"	2	"AP"	"no"	188	"l"	"whiteFace1.bmp"	"800"	"white"	"2"	"+"	"1"	"l"	"l"	"261"	"negative"	"garbage"
2	1	3	2	2	5	"posLeft"	2	"l"	"a"	"APproc"	2	"AP"	"no"	189	"l"	"whiteFace7.bmp"	"1200"	"white"	"2"	"+"	"1"	"l"	"l"	"381"	"negative"	"poison"
2	1	3	2	2	5	"posLeft"	2	"l"	"a"	"APproc"	2	"AP"	"no"	190	"a"	"whiteFace1.bmp"	"1000"	"white"	"1"	"+"	"0"	"a"	"l"	"340"	"positive"	"smile"
2	1	3	2	2	5	"posLeft"	2	"l"	"a"	"APproc"	2	"AP"	"no"	191	"l"	"whiteFace3.bmp"	"800"	"white"	"1"	"+"	"0"	"l"	"a"	"163"	"negative"	"vomit"
2	1	3	2	2	5	"posLeft"	2	"l"	"a"	"APproc"	2	"AP"	"no"	192	"a"	"whiteFace1.bmp"	"1000"	"white"	"1"	"+"	"0"	"a"	"l"	"299"	"positive"	"paradise"
2	1	3	2	2	5	"posLeft"	2	"l"	"a"	"APproc"	3	"PostAPquestions"	"no"	1	"NULL"	"NULL"	"NULL"	"NULL"	"NULL"	"NULL"	"NULL"	"NULL"	"NULL"	"NULL"	"NULL"	"NULL"
2	1	3	2	2	5	"posLeft"	2	"l"	"a"	"APproc"	3	"PostAPquestions"	"no"	2	"NULL"	"NULL"	"NULL"	"NULL"	"NULL"	"NULL"	"NULL"	"NULL"	"NULL"	"NULL"	"NULL"	"NULL"
2	1	3	2	2	5	"posLeft"	2	"l"	"a"	"APproc"	3	"PostAPquestions"	"no"	3	"NULL"	"NULL"	"NULL"	"NULL"	"NULL"	"NULL"	"NULL"	"NULL"	"NULL"	"NULL"	"NULL"	"NULL"
2	1	3	2	2	5	"posLeft"	2	"l"	"a"	"APproc"	3	"PostAPquestions"	"no"	4	"NULL"	"NULL"	"NULL"	"NULL"	"NULL"	"NULL"	"NULL"	"NULL"	"NULL"	"NULL"	"NULL"	"NULL"
2	1	3	2	2	5	"posLeft"	2	"l"	"a"	"APproc"	3	"PostAPquestions"	"no"	5	"NULL"	"NULL"	"NULL"	"NULL"	"NULL"	"NULL"	"NULL"	"NULL"	"NULL"	"NULL"	"NULL"	"NULL"
3	1	1	3	1	4	"posRight"	2	"a"	"l"	"APproc"	1	"practiceAP"	"yes"	1	"l"	"blackFace7.bmp"	"1000"	"black"	"3"	"TOO SLOW"	"0"	"l"	""	"0"	"positive"	"smile"
3	1	1	3	1	4	"posRight"	2	"a"	"l"	"APproc"	1	"practiceAP"	"yes"	2	"a"	"whiteFace4.bmp"	"1200"	"white"	"2"	"+"	"1"	"a"	"a"	"32"	"negative"	"sewage"
3	1	1	3	1	4	"posRight"	2	"a"	"l"	"APproc"	1	"practiceAP"	"yes"	3	"a"	"whiteFace1.bmp"	"1000"	"white"	"1"	"+"	"0"	"a"	"l"	"78"	"negative"	"vomit"
3	1	1	3	1	4	"posRight"	2	"a"	"l"	"APproc"	1	"practiceAP"	"yes"	4	"l"	"whiteFace4.bmp"	"800"	"white"	"1"	"+"	"0"	"l"	"a"	"306"	"positive"	"paradise"
3	1	1	3	1	4	"posRight"	2	"a"	"l"	"APproc"	1	"practiceAP"	"yes"	5	"l"	"blackFace4.bmp"	"1200"	"black"	"1"	"+"	"0"	"l"	"a"	"297"	"positive"	"paradise"
3	1	1	3	1	4	"posRight"	2	"a"	"l"	"APproc"	1	"practiceAP"	"yes"	6	"l"	"blackFace2.bmp"	"800"	"black"	"1"	"+"	"0"	"l"	"a"	"384"	"positive"	"paradise"
3	1	1	3	1	4	"posRight"	2	"a"	"l"	"APproc"	1	"practiceAP"	"yes"	7	"a"	"blackFace3.bmp"	"1000"	"black"	"2"	"+"	"1"	"a"	"a"	"280"	"negative"	"vomit"
3	1	1	3	1	4	"posRight"	2	"a"	"l"	"APproc"	1	"practiceAP"	"yes"	8	"a"	"blackFace8.bmp"	"1200"	"black"	"1"	"+"	"0"	"a"	"l"	"207"	"negative"	"sewage"
3	1	1	3	1	4	"posRight"	2	"a"	"l"	"APproc"	1	"practiceAP"	"yes"	9	"l"	"whiteFace4.bmp"	"1000"	"white"	"1"	"+"	"0"	"l"	"a"	"46"	"positive"	"love"
3	1	1	3	1	4	"posRight"	2	"a"	"l"	"APproc"	1	"practiceAP"	"yes"	10	"a"	"whiteFace5.bmp"	"1200"	"white"	"1"	"+"	"0"	"a"	"l"	"444"	"negative"	"poison"
3	1	1	3	1	4	"posRight"	2	"a"	"l"	"APproc"	1	"practiceAP"	"yes"	11	"l"	"whiteFace8.bmp"	"800"	"white"	"1"	"+"	"0"	"l"	"a"	"147"	"positive"	"paradise"
3	1	1	3	1	4	"posRight"	2	"a"	"l"	"APproc"	1	"practiceAP"	"yes"	12	"l"	"whiteFace5.bmp"	"1200"	"white"	"2"	"+"	"1"	"l"	"l"	"349"	"positive"	"beauty"
3	1	1	3	1	4	"posRight"	2	"a"	"l"	"APproc"	1	"practiceAP"	"yes"	13	"a"	"blackFace3.bmp"	"800"	"black"	"2"	"+"	"1"	"a"	"a"	"284"	"negative"	"vomit"
3	1	1	3	1	4	"posRight"	2	"a"	"l"	"APproc"	1	"practiceAP"	"yes"	14	"a"	"blackFace2.bmp"	"1000"	"black"	"1"	"+"	"0"	"a"	"l"	"275"	"negative"	"sewage"
3	1	1	3	1	4	"posRight"	2	"a"	"l"	"APproc"	1	"practiceAP"	"yes"	15	"l"	"blackFace3.bmp"	"1200"	"black"	"1"	"+"	"0"	"l"	"a"	"275"	"positive"	"beauty"
3	1	1	3	1	4	"posRight"	2	"a"	"l"	"APproc"	1	"practiceAP"	"yes"	16	"a"	"whiteFace7.bmp"	"1000"	"white"	"1"	"+"	"0"	"a"	"l"	"297"	"negative"	"poison"
3	1	1	3	1	4	"posRight"	2	"a"	"l"	"APproc"	2	"AP"	"no"	1	"a"	"blackFace2.bmp"	"800"	"black"	"1"	"+"	"0"	"a"	"l"	"491"	"negative"	"vomit"
3	1	1	3	1	4	"posRight"	2	"a"	"l"	"APproc"	2	"AP"	"no"	2	"a"	"whiteFace2.bmp"	"1000"	"white"	"2"	"+"	"1"	"a"	"a"	"266"	"negative"	"garbage"
3	1	1	3	1	4	"posRight"	2	"a"	"l"	"APproc"	2	"AP"	"no"	3	"a"	"blackFace4.bmp"	"800"	"black"	"3"	"TOO SLOW"	"0"	"a"	""	"0"	"negative"	"poison"
3	1	1	3	1	4	"posRight"	2	"a"	"l"	"APproc"	2	"AP"	"no"	4	"a"	"whiteFace3.bmp"	"1200"	"white"	"2"	"+"	"1"	"a"	"a"	"408"	"negative"	"garbage"
3	1	1	3	1	4	"posRight"	2	"a"	"l"	"APproc"	2	"AP"	"no"	5	"a"	"blackFace6.bmp"	"800"	"black"	"2"	"+"	"1"	"a"	"a"	"359"	"negative"	"poison"
3	1	1	3	1	4	"posRight"	2	"a"	"l"	"APproc"	2	"AP"	"no"	6	"l"	"blackFace4.bmp"	"1200"	"black"	"2"	"+"	"1"	"l"	"l"	"399"	"positive"	"paradise"
3	1	1	3	1	4	"posRight"	2	"a"	"l"	"APproc"	2	"AP"	"no"	7	"a"	"blackFace6.bmp"	"1000"	"black"	"1"	"+"	"0"	"a"	"l"	"334"	"negative"	"vomit"
3	1	1	3	1	4	"posRight"	2	"a"	"l"	"APproc"	2	"AP"	"no"	8	"l"	"blackFace7.bmp"	"1200"	"black"	"3"	"TOO SLOW"	"0"	"l"	""	"0"	"positive"	"love"
3	1	1	3	1	4	"posRight"	2	"a"	"l"	"APproc"	2	"AP"	"no"	9	"l"	"blackFace6.bmp"	"1000"	"black"	"2"	"+"	"1"	"l"	"l"	"212"	"positive"	"beauty"
3	1	1	3	1	4	"posRight"	2	"a"	"l"	"APproc"	2	"AP"	"no"	10	"l"	"whiteFace5.bmp"	"800"	"white"	"1"	"+"	"0"	"l"	"a"	"308"	"positive"	"beauty"
3	1	1	3	1	4	"posRight"	2	"a"	"l"	"APproc"	2	"AP"	"no"	11	"l"	"whiteFace2.bmp"	"1200"	"white"	"2"	"+"	"1"	"l"	"l"	"251"	"positive"	"smile"
3	1	1	3	1	4	"posRight"	2	"a"	"l"	"APproc"	2	"AP"	"no"	12	"l"	"whiteFace8.bmp"	"800"	"white"	"2"	"+"	"1"	"l"	"l"	"354"	"positive"	"smile"
3	1	1	3	1	4	"posRight"	2	"a"	"l"	"APproc"	2	"AP"	"no"	13	"l"	"blackFace2.bmp"	"1000"	"black"	"1"	"+"	"0"	"l"	"a"	"402"	"positive"	"paradise"
3	1	1	3	1	4	"posRight"	2	"a"	"l"	"APproc"	2	"AP"	"no"	14	"l"	"blackFace7.bmp"	"1200"	"black"	"2"	"+"	"1"	"l"	"l"	"377"	"positive"	"beauty"
3	1	1	3	1	4	"posRight"	2	"a"	"l"	"APproc"	2	"AP"	"no"	15	"l"	"whiteFace5.bmp"	"800"	"white"	"2"	"+"	"1"	"l"	"l"	"224"	"positive"	"love"
3	1	1	3	1	4	"posRight"	2	"a"	"l"	"APproc"	2	"AP"	"no"	16	"a"	"whiteFace3.bmp"	"1000"	"white"	"2"	"+"	"1"	"a"	"a"	"432"	"negative"	"sewage"
3	1	1	3	1	4	"posRight"	2	"a"	"l"	"APproc"	2	"AP"	"no"	17	"a"	"blackFace4.bmp"	"1200"	"black"	"1"	"+"	"0"	"a"	"l"	"351"	"negative"	"garbage"
3	1	1	3	1	4	"posRight"	2	"a"	"l"	"APproc"	2	"AP"	"no"	18	"l"	"whiteFace4.bmp"	"1000"	"white"	"2"	"+"	"1"	"l"	"l"	"310"	"positive"	"beauty"
3	1	1	3	1	4	"posRight"	2	"a"	"l"	"APproc"	2	"AP"	"no"	19	"l"	"blackFace3.bmp"	"800"	"black"	"1"	"+"	"0"	"l"	"a"	"414"	"positive"	"beauty"
3	1	1	3	1	4	"posRight"	2	"a"	"l"	"APproc"	2	"AP"	"no"	20	"l"	"blackFace5.bmp"	"800"	"black"	"2"	"+"	"1"	"l"	"l"	"293"	"positive"	"love"
3	1	1	3	1	4	"posRight"	2	"a"	"l"	"APproc"	2	"AP"	"no"	21	"a"	"whiteFace1.bmp"	"1200"	"white"	"3"	"TOO SLOW"	"0"	"a"	""	"0"	"negative"	"sewage"
3	1	1	3	1	4	"posRight"	2	"a"	"l"	"APproc"	2	"AP"	"no"	22	"a"	"whiteFace3.bmp"	"1000"	"white"	"2"	"+"	"1"	"a"	"a"	"292"	"negative"	"vomit"
3	1	1	3	1	4	"posRight"	2	"a"	"l"	"APproc"	2	"AP"	"no"	23	"a"	"blackFace8.bmp"	"800"	"black"	"2"	"+"	"1"	"a"	"a"	"267"	"negative"	"vomit"
3	1	1	3	1	4	"posRight"	2	"a"	"l"	"APproc"	2	"AP"	"no"	24	"a"	"blackFace4.bmp"	"1200"	"black"	"1"	"+"	"0"	"a"	"l"	"275"	"negative"	"vomit"
3	1	1	3	1	4	"posRight"	2	"a"	"l"	"APproc"	2	"AP"	"no"	25	"l"	"blackFace6.bmp"	"1000"	"black"	"2"	"+"	"1"	"l"	"l"	"442"	"positive"	"love"
3	1	1	3	1	4	"posRight"	2	"a"	"l"	"APproc"	2	"AP"	"no"	26	"a"	"whiteFace1.bmp"	"800"	"white"	"2"	"+"	"1"	"a"	"a"	"457"	"negative"	"poison"
3	1	1	3	1	4	"posRight"	2	"a"	"l"	"APproc"	2	"AP"	"no"	27	"a"	"blackFace7.bmp"	"1000"	"black"	"1"	"+"	"0"	"a"	"l"	"353"	"negative"	"sewage"
3	1	1	3	1	4	"posRight"	2	"a"	"l"	"APproc"	2	"AP"	"no"	28	"a"	"whiteFace7.bmp"	"1200"	"white"	"2"	"+"	"1"	"a"	"a"	"287"	"negative"	"garbage"
3	1	1	3	1	4	"posRight"	2	"a"	"l"	"APproc"	2	"AP"	"no"	29	"l"	"whiteFace6.bmp"	"800"	"white"	"2"	"+"	"1"	"l"	"l"	"254"	"positive"	"paradise"
3	1	1	3	1	4	"posRight"	2	"a"	"l"	"APproc"	2	"AP"	"no"	30	"l"	"whiteFace2.bmp"	"1200"	"white"	"1"	"+"	"0"	"l"	"a"	"342"	"positive"	"love"
3	1	1	3	1	4	"posRight"	2	"a"	"l"	"APproc"	2	"AP"	"no"	31	"a"	"blackFace3.bmp"	"1000"	"black"	"1"	"+"	"0"	"a"	"l"	"277"	"negative"	"poison"
3	1	1	3	1	4	"posRight"	2	"a"	"l"	"APproc"	2	"AP"	"no"	32	"l"	"blackFace8.bmp"	"800"	"black"	"2"	"+"	"1"	"l"	"l"	"381"	"positive"	"smile"
3	1	1	3	1	4	"posRight"	2	"a"	"l"	"APproc"	2	"AP"	"no"	33	"a"	"blackFace7.bmp"	"1000"	"black"	"1"	"+"	"0"	"a"	"l"	"364"	"negative"	"vomit"
3	1	1	3	1	4	"posRight"	2	"a"	"l"	"APproc"	2	"AP"	"no"	34	"l"	"blackFace5.bmp"	"1200"	"black"	"1"	"+"	"0"	"l"	"a"	"347"	"positive"	"paradise"
3	1	1	3	1	4	"posRight"	2	"a"	"l"	"APproc"	2	"AP"	"no"	35	"l"	"blackFace4.bmp"	"800"	"black"	"2"	"+"	"1"	"l"	"l"	"379"	"positive"	"beauty"
3	1	1	3	1	4	"posRight"	2	"a"	"l"	"APproc"	2	"AP"	"no"	36	"l"	"whiteFace3.bmp"	"1000"	"white"	"1"	"+"	"0"	"l"	"a"	"266"	"positive"	"paradise"
3	1	1	3	1	4	"posRight"	2	"a"	"l"	"APproc"	2	"AP"	"no"	37	"a"	"blackFace6.bmp"	"1200"	"black"	"1"	"+"	"0"	"a"	"l"	"289"	"negative"	"sewage"
3	1	1	3	1	4	"posRight"	2	"a"	"l"	"APproc"	2	"AP"	"no"	38	"l"	"whiteFace4.bmp"	"1200"	"white"	"3"	"TOO SLOW"	"0"	"l"	""	"0"	"positive"	"paradise"
3	1	1	3	1	4	"posRight"	2	"a"	"l"	"APproc"	2	"AP"	"no"	39	"a"	"whiteFace2.bmp"	"1000"	"white"	"2"	"+"	"1"	"a"	"a"	"344"	"negative"	"vomit"
3	1	1	3	1	4	"posRight"	2	"a"	"l"	"APproc"	2	"AP"	"no"	40	"a"	"blackFace8.bmp"	"800"	"black"	"3"	"TOO SLOW"	"0"	"a"	""	"0"	"negative"	"poison"
3	1	1	3	1	4	"posRight"	2	"a"	"l"	"APproc"	2	"AP"	"no"	41	"l"	"whiteFace8.bmp"	"1000"	"white"	"2"	"+"	"1"	"l"	"l"	"486"	"positive"	"love"
3	1	1	3	1	4	"posRight"	2	"a"	"l"	"APproc"	2	"AP"	"no"	42	"l"	"whiteFace7.bmp"	"800"	"white"	"2"	"+"	"1"	"l"	"l"	"486"	"positive"	"beauty"
3	1	1	3	1	4	"posRight"	2	"a"	"l"	"APproc"	2	"AP"	"no"	43	"l"	"blackFace5.bmp"	"1200"	"black"	"2"	"+"	"1"	"l"	"l"	"413"	"positive"	"smile"
3	1	1	3	1	4	"posRight"	2	"a"	"l"	"APproc"	2	"AP"	"no"	44	"l"	"whiteFace7.bmp"	"1200"	"white"	"2"	"+"	"1"	"l"	"l"	"300"	"positive"	"smile"
3	1	1	3	1	4	"posRight"	2	"a"	"l"	"APproc"	2	"AP"	"no"	45	"l"	"blackFace7.bmp"	"1000"	"black"	"2"	"+"	"1"	"l"	"l"	"356"	"positive"	"paradise"
3	1	1	3	1	4	"posRight"	2	"a"	"l"	"APproc"	2	"AP"	"no"	46	"l"	"blackFace1.bmp"	"800"	"black"	"2"	"+"	"1"	"l"	"l"	"395"	"positive"	"love"
3	1	1	3	1	4	"posRight"	2	"a"	"l"	"APproc"	2	"AP"	"no"	47	"a"	"blackFace8.bmp"	"800"	"black"	"2"	"+"	"1"	"a"	"a"	"466"	"negative"	"garbage"
3	1	1	3	1	4	"posRight"	2	"a"	"l"	"APproc"	2	"AP"	"no"	48	"l"	"whiteFace3.bmp"	"1000"	"white"	"3"	"TOO SLOW"	"0"	"l"	""	"0"	"positive"	"love"
3	1	1	3	1	4	"posRight"	2	"a"	"l"	"APproc"	2	"AP"	"no"	49	"l"	"whiteFace4.bmp"	"1200"	"white"	"1"	"+"	"0"	"l"	"a"	"449"	"positive"	"smile"
3	1	1	3	1	4	"posRight"	2	"a"	"l"	"APproc"	2	"AP"	"no"	50	"a"	"whiteFace8.bmp"	"800"	"white"	"1"	"+"	"0"	"a"	"l"	"232"	"negative"	"vomit"
3	1	1	3	1	4	"posRight"	2	"a"	"l"	"APproc"	2	"AP"	"no"	51	"l"	"whiteFace1.bmp"	"1200"	"white"	"3"	"TOO SLOW"	"0"	"l"	""	"0"	"positive"	"paradise"
3	1	1	3	1	4	"posRight"	2	"a"	"l"	"APproc"	2	"AP"	"no"	52	"a"	"whiteFace8.bmp"	"1000"	"white"	"1"	"+"	"0"	"a"	"l"	"431"	"negative"	"poison"
3	1	1	3	1	4	"posRight"	2	"a"	"l"	"APproc"	2	"AP"	"no"	53	"a"	"whiteFace8.bmp"	"1000"	"white"	"1"	"+"	"0"	"a"	"l"	"407"	"negative"	"sewage"
3	1	1	3	1	4	"posRight"	2	"a"	"l"	"APproc"	2	"AP"	"no"	54	"l"	"whiteFace5.bmp"	"800"	"white"	"1"	"+"	"0"	"l"	"a"	"278"	"positive"	"smile"
3	1	1	3	1	4	"posRight"	2	"a"	"l"	"APproc"	2	"AP"	"no"	55	"l"	"blackFace1.bmp"	"1200"	"black"	"1"	"+"	"0"	"l"	"a"	"445"	"positive"	"paradise"
3	1	1	3	1	4	"posRight"	2	"a"	"l"	"APproc"	2	"AP"	"no"	56	"a"	"whiteFace3.bmp"	"800"	"white"	"1"	"+"	"0"	"a"	"l"	"397"	"negative"	"poison"
3	1	1	3	1	4	"posRight"	2	"a"	"l"	"APproc"	2	"AP"	"no"	57	"l"	"blackFace3.bmp"	"1000"	"black"	"1"	"+"	"0"	"l"	"a"	"260"	"positive"	"love"
3	1	1	3	1	4	"posRight"	2	"a"	"l"	"APproc"	2	"AP"	"no"	58	"a"	"whiteFace5.bmp"	"1200"	"white"	"1"	"+"	"0"	"a"	"l"	"411"	"negative"	"garbage"
3	1	1	3	1	4	"posRight"	2	"a"	"l"	"APproc"	2	"AP"	"no"	59	"a"	"blackFace8.bmp"	"800"	"black"	"1"	"+"	"0"	"a"	"l"	"290"	"negative"	"sewage"
3	1	1	3	1	4	"posRight"	2	"a"	"l"	"APproc"	2	"AP"	"no"	60	"a"	"whiteFace6.bmp"	"1200"	"white"	"3"	"TOO SLOW"	"0"	"a"	""	"0"	"negative"	"vomit"
3	1	1	3	1	4	"posRight"	2	"a"	"l"	"APproc"	2	"AP"	"no"	61	"a"	"blackFace5.bmp"	"1000"	"black"	"2"	"+"	"1"	"a"	"a"	"240"	"negative"	"poison"
3	1	1	3	1	4	"posRight"	2	"a"	"l"	"APproc"	2	"AP"	"no"	62	"a"	"whiteFace2.bmp"	"1200"	"white"	"1"	"+"	"0"	"a"	"l"	"319"	"negative"	"sewage"
3	1	1	3	1	4	"posRight"	2	"a"	"l"	"APproc"	2	"AP"	"no"	63	"a"	"blackFace2.bmp"	"1000"	"black"	"3"	"TOO SLOW"	"0"	"a"	""	"0"	"negative"	"sewage"
3	1	1	3	1	4	"posRight"	2	"a"	"l"	"APproc"	2	"AP"	"no"	64	"a"	"whiteFace6.bmp"	"800"	"white"	"2"	"+"	"1"	"a"	"a"	"318"	"negative"	"garbage"
3	1	1	3	1	4	"posRight"	2	"a"	"l"	"APproc"	2	"AP"	"no"	65	"l"	"whiteFace1.bmp"	"1000"	"white"	"2"	"+"	"1"	"l"	"l"	"349"	"positive"	"beauty"
3	1	1	3	1	4	"posRight"	2	"a"	"l"	"APproc"	2	"AP"	"no"	66	"a"	"whiteFace5.bmp"	"800"	"white"	"2"	"+"	"1"	"a"	"a"	"349"	"negative"	"sewage"
3	1	1	3	1	4	"posRight"	2	"a"	"l"	"APproc"	2	"AP"	"no"	67	"l"	"blackFace7.bmp"	"1200"	"black"	"2"	"+"	"1"	"l"	"l"	"340"	"positive"	"smile"
3	1	1	3	1	4	"posRight"	2	"a"	"l"	"APproc"	2	"AP"	"no"	68	"a"	"blackFace3.bmp"	"1200"	"black"	"2"	"+"	"1"	"a"	"a"	"347"	"negative"	"vomit"
3	1	1	3	1	4	"posRight"	2	"a"	"l"	"APproc"	2	"AP"	"no"	69	"l"	"whiteFace6.bmp"	"1000"	"white"	"2"	"+"	"1"	"l"	"l"	"267"	"positive"	"smile"
3	1	1	3	1	4	"posRight"	2	"a"	"l"	"APproc"	2	"AP"	"no"	70	"l"	"whiteFace1.bmp"	"800"	"white"	"1"	"+"	"0"	"l"	"a"	"450"	"positive"	"smile"
3	1	1	3	1	4	"posRight"	2	"a"	"l"	"APproc"	2	"AP"	"no"	71	"l"	"whiteFace8.bmp"	"1200"	"white"	"2"	"+"	"1"	"l"	"l"	"281"	"positive"	"paradise"
3	1	1	3	1	4	"posRight"	2	"a"	"l"	"APproc"	2	"AP"	"no"	72	"l"	"whiteFace4.bmp"	"1000"	"white"	"2"	"+"	"1"	"l"	"l"	"433"	"positive"	"love"
3	1	1	3	1	4	"posRight"	2	"a"	"l"	"APproc"	2	"AP"	"no"	73	"a"	"blackFace1.bmp"	"800"	"black"	"3"	"TOO SLOW"	"0"	"a"	""	"0"	"negative"	"sewage"
3	1	1	3	1	4	"posRight"	2	"a"	"l"	"APproc"	2	"AP"	"no"	74	"l"	"blackFace4.bmp"	"800"	"black"	"1"	"+"	"0"	"l"	"a"	"384"	"positive"	"smile"
3	1	1	3	1	4	"posRight"	2	"a"	"l"	"APproc"	2	"AP"	"no"	75	"a"	"blackFace7.bmp"	"1200"	"black"	"2"	"+"	"1"	"a"	"a"	"303"	"negative"	"garbage"
3	1	1	3	1	4	"posRight"	2	"a"	"l"	"APproc"	2	"AP"	"no"	76	"l"	"blackFace4.bmp"	"1000"	"black"	"1"	"+"	"0"	"l"	"a"	"222"	"positive"	"love"
3	1	1	3	1	4	"posRight"	2	"a"	"l"	"APproc"	2	"AP"	"no"	77	"a"	"blackFace3.bmp"	"800"	"black"	"1"	"+"	"0"	"a"	"l"	"366"	"negative"	"sewage"
3	1	1	3	1	4	"posRight"	2	"a"	"l"	"APproc"	2	"AP"	"no"	78	"a"	"whiteFace4.bmp"	"1000"	"white"	"1"	"+"	"0"	"a"	"l"	"317"	"negative"	"sewage"
3	1	1	3	1	4	"posRight"	2	"a"	"l"	"APproc"	2	"AP"	"no"	79	"l"	"blackFace2.bmp"	"1200"	"black"	"2"	"+"	"1"	"l"	"l"	"196"	"positive"	"smile"
3	1	1	3	1	4	"posRight"	2	"a"	"l"	"APproc"	2	"AP"	"no"	80	"l"	"blackFace5.bmp"	"800"	"black"	"2"	"+"	"1"	"l"	"l"	"268"	"positive"	"beauty"
3	1	1	3	1	4	"posRight"	2	"a"	"l"	"APproc"	2	"AP"	"no"	81	"l"	"whiteFace5.bmp"	"1200"	"white"	"1"	"+"	"0"	"l"	"a"	"211"	"positive"	"paradise"
3	1	1	3	1	4	"posRight"	2	"a"	"l"	"APproc"	2	"AP"	"no"	82	"a"	"whiteFace4.bmp"	"1000"	"white"	"1"	"+"	"0"	"a"	"l"	"90"	"negative"	"poison"
3	1	1	3	1	4	"posRight"	2	"a"	"l"	"APproc"	2	"AP"	"no"	83	"l"	"whiteFace3.bmp"	"1200"	"white"	"1"	"+"	"0"	"l"	"a"	"406"	"positive"	"smile"
3	1	1	3	1	4	"posRight"	2	"a"	"l"	"APproc"	2	"AP"	"no"	84	"l"	"whiteFace7.bmp"	"1000"	"white"	"2"	"+"	"1"	"l"	"l"	"341"	"positive"	"love"
3	1	1	3	1	4	"posRight"	2	"a"	"l"	"APproc"	2	"AP"	"no"	85	"a"	"blackFace1.bmp"	"800"	"black"	"1"	"+"	"0"	"a"	"l"	"293"	"negative"	"vomit"
3	1	1	3	1	4	"posRight"	2	"a"	"l"	"APproc"	2	"AP"	"no"	86	"l"	"whiteFace6.bmp"	"1200"	"white"	"1"	"+"	"0"	"l"	"a"	"28"	"positive"	"love"
3	1	1	3	1	4	"posRight"	2	"a"	"l"	"APproc"	2	"AP"	"no"	87	"a"	"blackFace1.bmp"	"800"	"black"	"1"	"+"	"0"	"a"	"l"	"2"	"negative"	"poison"
3	1	1	3	1	4	"posRight"	2	"a"	"l"	"APproc"	2	"AP"	"no"	88	"a"	"blackFace7.bmp"	"1000"	"black"	"2"	"+"	"1"	"a"	"a"	"81"	"negative"	"poison"
3	1	1	3	1	4	"posRight"	2	"a"	"l"	"APproc"	2	"AP"	"no"	89	"a"	"blackFace2.bmp"	"1200"	"black"	"2"	"+"	"1"	"a"	"a"	"428"	"negative"	"poison"
3	1	1	3	1	4	"posRight"	2	"a"	"l"	"APproc"	2	"AP"	"no"	90	"a"	"whiteFace2.bmp"	"1000"	"white"	"2"	"+"	"1"	"a"	"a"	"315"	"negative"	"poison"
3	1	1	3	1	4	"posRight"	2	"a"	"l"	"APproc"	2	"AP"	"no"	91	"a"	"whiteFace5.bmp"	"800"	"white"	"2"	"+"	"1"	"a"	"a"	"450"	"negative"	"vomit"
3	1	1	3	1	4	"posRight"	2	"a"	"l"	"APproc"	2	"AP"	"no"	92	"a"	"blackFace3.bmp"	"800"	"black"	"2"	"+"	"1"	"a"	"a"	"258"	"negative"	"garbage"
3	1	1	3	1	4	"posRight"	2	"a"	"l"	"APproc"	2	"AP"	"no"	93	"l"	"blackFace8.bmp"	"1200"	"black"	"1"	"+"	"0"	"l"	"a"	"249"	"positive"	"beauty"
3	1	1	3	1	4	"posRight"	2	"a"	"l"	"APproc"	2	"AP"	"no"	94	"l"	"blackFace6.bmp"	"1000"	"black"	"2"	"+"	"1"	"l"	"l"	"113"	"positive"	"paradise"
3	1	1	3	1	4	"posRight"	2	"a"	"l"	"APproc"	2	"AP"	"no"	95	"a"	"whiteFace1.bmp"	"800"	"white"	"2"	"+"	"1"	"a"	"a"	"35"	"negative"	"garbage"
3	1	1	3	1	4	"posRight"	2	"a"	"l"	"APproc"	2	"AP"	"no"	96	"l"	"whiteFace3.bmp"	"1000"	"white"	"2"	"+"	"1"	"l"	"l"	"217"	"positive"	"beauty"
3	1	1	3	1	4	"posRight"	2	"a"	"l"	"APproc"	2	"AP"	"no"	97	"l"	"blackFace8.bmp"	"1200"	"black"	"2"	"+"	"1"	"l"	"l"	"393"	"positive"	"paradise"
3	1	1	3	1	4	"posRight"	2	"a"	"l"	"APproc"	2	"AP"	"no"	98	"a"	"whiteFace4.bmp"	"800"	"white"	"2"	"+"	"1"	"a"	"a"	"56"	"negative"	"vomit"
3	1	1	3	1	4	"posRight"	2	"a"	"l"	"APproc"	2	"AP"	"no"	99	"l"	"whiteFace7.bmp"	"1200"	"white"	"2"	"+"	"1"	"l"	"l"	"253"	"positive"	"paradise"
3	1	1	3	1	4	"posRight"	2	"a"	"l"	"APproc"	2	"AP"	"no"	100	"l"	"blackFace3.bmp"	"1000"	"black"	"1"	"+"	"0"	"l"	"a"	"244"	"positive"	"smile"
3	1	1	3	1	4	"posRight"	2	"a"	"l"	"APproc"	2	"AP"	"no"	101	"a"	"whiteFace5.bmp"	"1200"	"white"	"1"	"+"	"0"	"a"	"l"	"244"	"negative"	"poison"
3	1	1	3	1	4	"posRight"	2	"a"	"l"	"APproc"	2	"AP"	"no"	102	"l"	"whiteFace2.bmp"	"1000"	"white"	"1"	"+"	"0"	"l"	"a"	"259"	"positive"	"beauty"
3	1	1	3	1	4	"posRight"	2	"a"	"l"	"APproc"	2	"AP"	"no"	103	"a"	"whiteFace7.bmp"	"800"	"white"	"2"	"+"	"1"	"a"	"a"	"10"	"negative"	"sewage"
3	1	1	3	1	4	"posRight"	2	"a"	"l"	"APproc"	2	"AP"	"no"	104	"l"	"blackFace2.bmp"	"1200"	"black"	"1"	"+"	"0"	"l"	"a"	"193"	"positive"	"beauty"
3	1	1	3	1	4	"posRight"	2	"a"	"l"	"APproc"	2	"AP"	"no"	105	"l"	"blackFace1.bmp"	"1000"	"black"	"2"	"+"	"1"	"l"	"l"	"424"	"positive"	"beauty"
3	1	1	3	1	4	"posRight"	2	"a"	"l"	"APproc"	2	"AP"	"no"	106	"a"	"blackFace1.bmp"	"800"	"black"	"1"	"+"	"0"	"a"	"l"	"8"	"negative"	"garbage"
3	1	1	3	1	4	"posRight"	2	"a"	"l"	"APproc"	2	"AP"	"no"	107	"a"	"whiteFace6.bmp"	"1200"	"white"	"1"	"+"	"0"	"a"	"l"	"238"	"negative"	"sewage"
3	1	1	3	1	4	"posRight"	2	"a"	"l"	"APproc"	2	"AP"	"no"	108	"l"	"whiteFace6.bmp"	"1000"	"white"	"1"	"+"	"0"	"l"	"a"	"158"	"positive"	"beauty"
3	1	1	3	1	4	"posRight"	2	"a"	"l"	"APproc"	2	"AP"	"no"	109	"l"	"blackFace8.bmp"	"800"	"black"	"1"	"+"	"0"	"l"	"a"	"270"	"positive"	"love"
3	1	1	3	1	4	"posRight"	2	"a"	"l"	"APproc"	2	"AP"	"no"	110	"a"	"blackFace5.bmp"	"800"	"black"	"1"	"+"	"0"	"a"	"l"	"270"	"negative"	"sewage"
3	1	1	3	1	4	"posRight"	2	"a"	"l"	"APproc"	2	"AP"	"no"	111	"l"	"whiteFace1.bmp"	"1000"	"white"	"2"	"+"	"1"	"l"	"l"	"357"	"positive"	"love"
3	1	1	3	1	4	"posRight"	2	"a"	"l"	"APproc"	2	"AP"	"no"	112	"a"	"blackFace5.bmp"	"1200"	"black"	"3"	"TOO SLOW"	"0"	"a"	""	"0"	"negative"	"garbage"
3	1	1	3	1	4	"posRight"	2	"a"	"l"	"APproc"	2	"AP"	"no"	113	"l"	"blackFace6.bmp"	"1200"	"black"	"2"	"+"	"1"	"l"	"l"	"140"	"positive"	"smile"
3	1	1	3	1	4	"posRight"	2	"a"	"l"	"APproc"	2	"AP"	"no"	114	"a"	"whiteFace7.bmp"	"1000"	"white"	"1"	"+"	"0"	"a"	"l"	"309"	"negative"	"poison"
3	1	1	3	1	4	"posRight"	2	"a"	"l"	"APproc"	2	"AP"	"no"	115	"a"	"whiteFace6.bmp"	"800"	"white"	"3"	"TOO SLOW"	"0"	"a"	""	"0"	"negative"	"poison"
3	1	1	3	1	4	"posRight"	2	"a"	"l"	"APproc"	2	"AP"	"no"	116	"a"	"whiteFace4.bmp"	"1200"	"white"	"2"	"+"	"1"	"a"	"a"	"236"	"negative"	"garbage"
3	1	1	3	1	4	"posRight"	2	"a"	"l"	"APproc"	2	"AP"	"no"	117	"a"	"blackFace4.bmp"	"1000"	"black"	"2"	"+"	"1"	"a"	"a"	"59"	"negative"	"sewage"
3	1	1	3	1	4	"posRight"	2	"a"	"l"	"APproc"	2	"AP"	"no"	118	"l"	"blackFace3.bmp"	"800"	"black"	"1"	"+"	"0"	"l"	"a"	"200"	"positive"	"paradise"
3	1	1	3	1	4	"posRight"	2	"a"	"l"	"APproc"	2	"AP"	"no"	119	"a"	"whiteFace1.bmp"	"1000"	"white"	"1"	"+"	"0"	"a"	"l"	"230"	"negative"	"vomit"
3	1	1	3	1	4	"posRight"	2	"a"	"l"	"APproc"	2	"AP"	"no"	120	"a"	"blackFace5.bmp"	"800"	"black"	"2"	"+"	"1"	"a"	"a"	"182"	"negative"	"vomit"
3	1	1	3	1	4	"posRight"	2	"a"	"l"	"APproc"	2	"AP"	"no"	121	"l"	"whiteFace2.bmp"	"1200"	"white"	"2"	"+"	"1"	"l"	"l"	"86"	"positive"	"paradise"
3	1	1	3	1	4	"posRight"	2	"a"	"l"	"APproc"	2	"AP"	"no"	122	"a"	"blackFace6.bmp"	"800"	"black"	"2"	"+"	"1"	"a"	"a"	"193"	"negative"	"garbage"
3	1	1	3	1	4	"posRight"	2	"a"	"l"	"APproc"	2	"AP"	"no"	123	"a"	"whiteFace7.bmp"	"1000"	"white"	"1"	"+"	"0"	"a"	"l"	"89"	"negative"	"vomit"
3	1	1	3	1	4	"posRight"	2	"a"	"l"	"APproc"	2	"AP"	"no"	124	"l"	"whiteFace8.bmp"	"1200"	"white"	"1"	"+"	"0"	"l"	"a"	"220"	"positive"	"beauty"
3	1	1	3	1	4	"posRight"	2	"a"	"l"	"APproc"	2	"AP"	"no"	125	"a"	"whiteFace8.bmp"	"800"	"white"	"1"	"+"	"0"	"a"	"l"	"235"	"negative"	"garbage"
3	1	1	3	1	4	"posRight"	2	"a"	"l"	"APproc"	2	"AP"	"no"	126	"a"	"blackFace2.bmp"	"1200"	"black"	"2"	"+"	"1"	"a"	"a"	"307"	"negative"	"garbage"
3	1	1	3	1	4	"posRight"	2	"a"	"l"	"APproc"	2	"AP"	"no"	127	"l"	"blackFace1.bmp"	"1000"	"black"	"2"	"+"	"1"	"l"	"l"	"234"	"positive"	"smile"
3	1	1	3	1	4	"posRight"	2	"a"	"l"	"APproc"	2	"AP"	"no"	128	"l"	"blackFace2.bmp"	"800"	"black"	"2"	"+"	"1"	"l"	"l"	"465"	"positive"	"love"
3	1	1	3	1	4	"posRight"	2	"a"	"l"	"APproc"	2	"AP"	"no"	129	"a"	"whiteFace8.bmp"	"1200"	"white"	"2"	"+"	"1"	"a"	"a"	"305"	"negative"	"poison"
3	1	1	3	1	4	"posRight"	2	"a"	"l"	"APproc"	2	"AP"	"no"	130	"a"	"whiteFace2.bmp"	"1000"	"white"	"2"	"+"	"1"	"a"	"a"	"344"	"negative"	"vomit"
3	1	1	3	1	4	"posRight"	2	"a"	"l"	"APproc"	2	"AP"	"no"	131	"l"	"whiteFace7.bmp"	"800"	"white"	"2"	"+"	"1"	"l"	"l"	"391"	"positive"	"love"
3	1	1	3	1	4	"posRight"	2	"a"	"l"	"APproc"	2	"AP"	"no"	132	"a"	"whiteFace1.bmp"	"1000"	"white"	"1"	"+"	"0"	"a"	"l"	"271"	"negative"	"sewage"
3	1	1	3	1	4	"posRight"	2	"a"	"l"	"APproc"	2	"AP"	"no"	133	"l"	"whiteFace3.bmp"	"1200"	"white"	"1"	"+"	"0"	"l"	"a"	"238"	"positive"	"smile"
3	1	1	3	1	4	"posRight"	2	"a"	"l"	"APproc"	2	"AP"	"no"	134	"a"	"blackFace5.bmp"	"1200"	"black"	"1"	"+"	"0"	"a"	"l"	"62"	"negative"	"poison"
3	1	1	3	1	4	"posRight"	2	"a"	"l"	"APproc"	2	"AP"	"no"	135	"l"	"blackFace8.bmp"	"1000"	"black"	"1"	"+"	"0"	"l"	"a"	"114"	"positive"	"smile"
3	1	1	3	1	4	"posRight"	2	"a"	"l"	"APproc"	2	"AP"	"no"	136	"a"	"blackFace1.bmp"	"800"	"black"	"1"	"+"	"0"	"a"	"l"	"117"	"negative"	"garbage"
3	1	1	3	1	4	"posRight"	2	"a"	"l"	"APproc"	2	"AP"	"no"	137	"l"	"blackFace5.bmp"	"1000"	"black"	"1"	"+"	"0"	"l"	"a"	"184"	"positive"	"love"
3	1	1	3	1	4	"posRight"	2	"a"	"l"	"APproc"	2	"AP"	"no"	138	"a"	"whiteFace1.bmp"	"1200"	"white"	"1"	"+"	"0"	"a"	"l"	"208"	"negative"	"vomit"
3	1	1	3	1	4	"posRight"	2	"a"	"l"	"APproc"	2	"AP"	"no"	139	"a"	"whiteFace5.bmp"	"800"	"white"	"1"	"+"	"0"	"a"	"l"	"167"	"negative"	"sewage"
3	1	1	3	1	4	"posRight"	2	"a"	"l"	"APproc"	2	"AP"	"no"	140	"l"	"blackFace6.bmp"	"800"	"black"	"2"	"+"	"1"	"l"	"l"	"152"	"positive"	"love"
3	1	1	3	1	4	"posRight"	2	"a"	"l"	"APproc"	2	"AP"	"no"	141	"l"	"blackFace5.bmp"	"1000"	"black"	"1"	"+"	"0"	"l"	"a"	"128"	"positive"	"beauty"
3	1	1	3	1	4	"posRight"	2	"a"	"l"	"APproc"	2	"AP"	"no"	142	"a"	"whiteFace5.bmp"	"1200"	"white"	"1"	"+"	"0"	"a"	"l"	"266"	"negative"	"poison"
3	1	1	3	1	4	"posRight"	2	"a"	"l"	"APproc"	2	"AP"	"no"	143	"l"	"blackFace6.bmp"	"800"	"black"	"1"	"+"	"0"	"l"	"a"	"18"	"positive"	"paradise"
3	1	1	3	1	4	"posRight"	2	"a"	"l"	"APproc"	2	"AP"	"no"	144	"l"	"blackFace6.bmp"	"1000"	"black"	"2"	"+"	"1"	"l"	"l"	"248"	"positive"	"smile"
3	1	1	3	1	4	"posRight"	2	"a"	"l"	"APproc"	2	"AP"	"no"	145	"a"	"blackFace5.bmp"	"1200"	"black"	"3"	"TOO SLOW"	"0"	"a"	""	"0"	"negative"	"garbage"
3	1	1	3	1	4	"posRight"	2	"a"	"l"	"APproc"	2	"AP"	"no"	146	"a"	"blackFace3.bmp"	"1200"	"black"	"2"	"+"	"1"	"a"	"a"	"118"	"negative"	"vomit"
3	1	1	3	1	4	"posRight"	2	"a"	"l"	"APproc"	2	"AP"	"no"	147	"a"	"whiteFace7.bmp"	"800"	"white"	"1"	"+"	"0"	"a"	"l"	"120"	"negative"	"sewage"
3	1	1	3	1	4	"posRight"	2	"a"	"l"	"APproc"	2	"AP"	"no"	148	"a"	"blackFace6.bmp"	"1000"	"black"	"2"	"+"	"1"	"a"	"a"	"50"	"negative"	"sewage"
3	1	1	3	1	4	"posRight"	2	"a"	"l"	"APproc"	2	"AP"	"no"	149	"l"	"blackFace7.bmp"	"1000"	"black"	"2"	"+"	"1"	"l"	"l"	"167"	"positive"	"smile"
3	1	1	3	1	4	"posRight"	2	"a"	"l"	"APproc"	2	"AP"	"no"	150	"a"	"blackFace6.bmp"	"800"	"black"	"1"	"+"	"0"	"a"	"l"	"279"	"negative"	"garbage"
3	1	1	3	1	4	"posRight"	2	"a"	"l"	"APproc"	2	"AP"	"no"	151	"a"	"blackFace5.bmp"	"1200"	"black"	"2"	"+"	"1"	"a"	"a"	"126"	"negative"	"vomit"
3	1	1	3	1	4	"posRight"	2	"a"	"l"	"APproc"	2	"AP"	"no"	152	"a"	"blackFace3.bmp"	"1200"	"black"	"3"	"TOO SLOW"	"0"	"a"	""	"0"	"negative"	"sewage"
3	1	1	3	1	4	"posRight"	2	"a"	"l"	"APproc"	2	"AP"	"no"	153	"l"	"whiteFace5.bmp"	"800"	"white"	"1"	"+"	"0"	"l"	"a"	"39"	"positive"	"beauty"
3	1	1	3	1	4	"posRight"	2	"a"	"l"	"APproc"	2	"AP"	"no"	154	"l"	"blackFace2.bmp"	"1000"	"black"	"2"	"+"	"1"	"l"	"l"	"197"	"positive"	"smile"
3	1	1	3	1	4	"posRight"	2	"a"	"l"	"APproc"	2	"AP"	"no"	155	"a"	"whiteFace2.bmp"	"800"	"white"	"3"	"TOO SLOW"	"0"	"a"	""	"0"	"negative"	"sewage"
3	1	1	3	1	4	"posRight"	2	"a"	"l"	"APproc"	2	"AP"	"no"	156	"l"	"blackFace1.bmp"	"1200"	"black"	"2"	"+"	"1"	"l"	"l"	"227"	"positive"	"paradise"
3	1	1	3	1	4	"posRight"	2	"a"	"l"	"APproc"	2	"AP"	"no"	157	"l"	"whiteFace8.bmp"	"1000"	"white"	"3"	"TOO SLOW"	"0"	"l"	""	"0"	"positive"	"paradise"
3	1	1	3	1	4	"posRight"	2	"a"	"l"	"APproc"	2	"AP"	"no"	158	"l"	"whiteFace3.bmp"	"1000"	"white"	"2"	"+"	"1"	"l"	"l"	"281"	"positive"	"paradise"
3	1	1	3	1	4	"posRight"	2	"a"	"l"	"APproc"	2	"AP"	"no"	159	"a"	"whiteFace5.bmp"	"1200"	"white"	"1"	"+"	"0"	"a"	"l"	"201"	"negative"	"vomit"
3	1	1	3	1	4	"posRight"	2	"a"	"l"	"APproc"	2	"AP"	"no"	160	"a"	"blackFace8.bmp"	"800"	"black"	"1"	"+"	"0"	"a"	"l"	"120"	"negative"	"sewage"
3	1	1	3	1	4	"posRight"	2	"a"	"l"	"APproc"	2	"AP"	"no"	161	"a"	"whiteFace8.bmp"	"1200"	"white"	"2"	"+"	"1"	"a"	"a"	"58"	"negative"	"sewage"
3	1	1	3	1	4	"posRight"	2	"a"	"l"	"APproc"	2	"AP"	"no"	162	"a"	"whiteFace6.bmp"	"1000"	"white"	"1"	"+"	"0"	"a"	"l"	"479"	"negative"	"sewage"
3	1	1	3	1	4	"posRight"	2	"a"	"l"	"APproc"	2	"AP"	"no"	163	"l"	"whiteFace8.bmp"	"800"	"white"	"2"	"+"	"1"	"l"	"l"	"238"	"positive"	"love"
3	1	1	3	1	4	"posRight"	2	"a"	"l"	"APproc"	2	"AP"	"no"	164	"l"	"whiteFace6.bmp"	"1200"	"white"	"2"	"+"	"1"	"l"	"l"	"382"	"positive"	"beauty"
3	1	1	3	1	4	"posRight"	2	"a"	"l"	"APproc"	2	"AP"	"no"	165	"a"	"whiteFace3.bmp"	"800"	"white"	"2"	"+"	"1"	"a"	"a"	"77"	"negative"	"sewage"
3	1	1	3	1	4	"posRight"	2	"a"	"l"	"APproc"	2	"AP"	"no"	166	"a"	"blackFace4.bmp"	"1000"	"black"	"1"	"+"	"0"	"a"	"l"	"169"	"negative"	"vomit"
3	1	1	3	1	4	"posRight"	2	"a"	"l"	"APproc"	2	"AP"	"no"	167	"l"	"whiteFace4.bmp"	"1200"	"white"	"2"	"+"	"1"	"l"	"l"	"33"	"positive"	"paradise"
3	1	1	3	1	4	"posRight"	2	"a"	"l"	"APproc"	2	"AP"	"no"	168	"l"	"whiteFace7.bmp"	"1000"	"white"	"1"	"+"	"0"	"l"	"a"	"135"	"positive"	"beauty"
3	1	1	3	1	4	"posRight"	2	"a"	"l"	"APproc"	2	"AP"	"no"	169	"l"	"whiteFace6.bmp"	"800"	"white"	"2"	"+"	"1"	"l"	"l"	"48"	"positive"	"love"
3	1	1	3	1	4	"posRight"	2	"a"	"l"	"APproc"	2	"AP"	"no"	170	"l"	"blackFace8.bmp"	"1000"	"black"	"2"	"+"	"1"	"l"	"l"	"70"	"positive"	"love"
3	1	1	3	1	4	"posRight"	2	"a"	"l"	"APproc"	2	"AP"	"no"	171	"l"	"blackFace2.bmp"	"800"	"black"	"2"	"+"	"1"	"l"	"l"	"74"	"positive"	"paradise"
3	1	1	3	1	4	"posRight"	2	"a"	"l"	"APproc"	2	"AP"	"no"	172	"a"	"blackFace2.bmp"	"1200"	"black"	"1"	"+"	"0"	"a"	"l"	"318"	"negative"	"garbage"
3	1	1	3	1	4	"posRight"	2	"a"	"l"	"APproc"	2	"AP"	"no"	173	"l"	"whiteFace4.bmp"	"800"	"white"	"3"	"TOO SLOW"	"0"	"l"	""	"0"	"positive"	"beauty"
3	1	1	3	1	4	"posRight"	2	"a"	"l"	"APproc"	2	"AP"	"no"	174	"l"	"blackFace7.bmp"	"1200"	"black"	"2"	"+"	"1"	"l"	"l"	"412"	"positive"	"beauty"
3	1	1	3	1	4	"posRight"	2	"a"	"l"	"APproc"	2	"AP"	"no"	175	"a"	"whiteFace1.bmp"	"1000"	"white"	"1"	"+"	"0"	"a"	"l"	"108"	"negative"	"poison"
3	1	1	3	1	4	"posRight"	2	"a"	"l"	"APproc"	2	"AP"	"no"	176	"l"	"blackFace4.bmp"	"1200"	"black"	"2"	"+"	"1"	"l"	"l"	"175"	"positive"	"smile"
3	1	1	3	1	4	"posRight"	2	"a"	"l"	"APproc"	2	"AP"	"no"	177	"a"	"blackFace7.bmp"	"800"	"black"	"2"	"+"	"1"	"a"	"a"	"295"	"negative"	"poison"
3	1	1	3	1	4	"posRight"	2	"a"	"l"	"APproc"	2	"AP"	"no"	178	"l"	"whiteFace2.bmp"	"1000"	"white"	"2"	"+"	"1"	"l"	"l"	"246"	"positive"	"smile"
3	1	1	3	1	4	"posRight"	2	"a"	"l"	"APproc"	2	"AP"	"no"	179	"a"	"whiteFace7.bmp"	"1000"	"white"	"2"	"+"	"1"	"a"	"a"	"381"	"negative"	"poison"
3	1	1	3	1	4	"posRight"	2	"a"	"l"	"APproc"	2	"AP"	"no"	180	"a"	"blackFace3.bmp"	"800"	"black"	"1"	"+"	"0"	"a"	"l"	"253"	"negative"	"garbage"
3	1	1	3	1	4	"posRight"	2	"a"	"l"	"APproc"	2	"AP"	"no"	181	"l"	"blackFace1.bmp"	"1200"	"black"	"3"	"TOO SLOW"	"0"	"l"	""	"0"	"positive"	"smile"
3	1	1	3	1	4	"posRight"	2	"a"	"l"	"APproc"	2	"AP"	"no"	182	"l"	"whiteFace3.bmp"	"800"	"white"	"3"	"TOO SLOW"	"0"	"l"	""	"0"	"positive"	"love"
3	1	1	3	1	4	"posRight"	2	"a"	"l"	"APproc"	2	"AP"	"no"	183	"l"	"whiteFace7.bmp"	"1000"	"white"	"2"	"+"	"1"	"l"	"l"	"217"	"positive"	"smile"
3	1	1	3	1	4	"posRight"	2	"a"	"l"	"APproc"	2	"AP"	"no"	184	"a"	"blackFace1.bmp"	"1200"	"black"	"2"	"+"	"1"	"a"	"a"	"256"	"negative"	"vomit"
3	1	1	3	1	4	"posRight"	2	"a"	"l"	"APproc"	2	"AP"	"no"	185	"l"	"whiteFace5.bmp"	"800"	"white"	"2"	"+"	"1"	"l"	"l"	"248"	"positive"	"paradise"
3	1	1	3	1	4	"posRight"	2	"a"	"l"	"APproc"	2	"AP"	"no"	186	"a"	"blackFace2.bmp"	"1200"	"black"	"2"	"+"	"1"	"a"	"a"	"287"	"negative"	"vomit"
3	1	1	3	1	4	"posRight"	2	"a"	"l"	"APproc"	2	"AP"	"no"	187	"a"	"whiteFace3.bmp"	"1000"	"white"	"1"	"+"	"0"	"a"	"l"	"239"	"negative"	"poison"
3	1	1	3	1	4	"posRight"	2	"a"	"l"	"APproc"	2	"AP"	"no"	188	"l"	"blackFace7.bmp"	"800"	"black"	"1"	"+"	"0"	"l"	"a"	"254"	"positive"	"paradise"
3	1	1	3	1	4	"posRight"	2	"a"	"l"	"APproc"	2	"AP"	"no"	189	"l"	"blackFace5.bmp"	"1000"	"black"	"2"	"+"	"1"	"l"	"l"	"125"	"positive"	"paradise"
3	1	1	3	1	4	"posRight"	2	"a"	"l"	"APproc"	2	"AP"	"no"	190	"l"	"whiteFace4.bmp"	"1200"	"white"	"2"	"+"	"1"	"l"	"l"	"271"	"positive"	"smile"
3	1	1	3	1	4	"posRight"	2	"a"	"l"	"APproc"	2	"AP"	"no"	191	"a"	"whiteFace3.bmp"	"800"	"white"	"1"	"+"	"0"	"a"	"l"	"127"	"negative"	"garbage"
3	1	1	3	1	4	"posRight"	2	"a"	"l"	"APproc"	2	"AP"	"no"	192	"a"	"blackFace4.bmp"	"1000"	"black"	"2"	"+"	"1"	"a"	"a"	"105"	"negative"	"garbage"
3	1	1	3	1	4	"posRight"	2	"a"	"l"	"APproc"	3	"PostAPquestions"	"no"	1	"NULL"	"NULL"	"NULL"	"NULL"	"NULL"	"NULL"	"NULL"	"NULL"	"NULL"	"NULL"	"NULL"	"NULL"
3	1	1	3	1	4	"posRight"	2	"a"	"l"	"APproc"	3	"PostAPquestions"	"no"	2	"NULL"	"NULL"	"NULL"	"NULL"	"NULL"	"NULL"	"NULL"	"NULL"	"NULL"	"NULL"	"NULL"	"NULL"
3	1	1	3	1	4	"posRight"	2	"a"	"l"	"APproc"	3	"PostAPquestions"	"no"	3	"NULL"	"NULL"	"NULL"	"NULL"	"NULL"	"NULL"	"NULL"	"NULL"	"NULL"	"NULL"	"NULL"	"NULL"
3	1	1	3	1	4	"posRight"	2	"a"	"l"	"APproc"	3	"PostAPquestions"	"no"	4	"NULL"	"NULL"	"NULL"	"NULL"	"NULL"	"NULL"	"NULL"	"NULL"	"NULL"	"NULL"	"NULL"	"NULL"
3	1	1	3	1	4	"posRight"	2	"a"	"l"	"APproc"	3	"PostAPquestions"	"no"	5	"NULL"	"NULL"	"NULL"	"NULL"	"NULL"	"NULL"	"NULL"	"NULL"	"NULL"	"NULL"	"NULL"	"NULL"
4	1	1	2	1	5	"posLeft"	2	"l"	"a"	"APproc"	1	"practiceAP"	"yes"	1	"a"	"whiteFace6.bmp"	"1200"	"white"	"3"	"TOO SLOW"	"0"	"a"	""	"0"	"positive"	"love"
4	1	1	2	1	5	"posLeft"	2	"l"	"a"	"APproc"	1	"practiceAP"	"yes"	2	"l"	"whiteFace8.bmp"	"800"	"white"	"2"	"+"	"1"	"l"	"l"	"41"	"negative"	"sewage"
4	1	1	2	1	5	"posLeft"	2	"l"	"a"	"APproc"	1	"practiceAP"	"yes"	3	"a"	"blackFace2.bmp"	"1200"	"black"	"2"	"+"	"1"	"a"	"a"	"230"	"positive"	"paradise"
4	1	1	2	1	5	"posLeft"	2	"l"	"a"	"APproc"	1	"practiceAP"	"yes"	4	"a"	"blackFace5.bmp"	"800"	"black"	"1"	"+"	"0"	"a"	"l"	"70"	"positive"	"smile"
4	1	1	2	1	5	"posLeft"	2	"l"	"a"	"APproc"	1	"practiceAP"	"yes"	5	"l"	"whiteFace4.bmp"	"1000"	"white"	"1"	"+"	"0"	"l"	"a"	"250"	"negative"	"sewage"
4	1	1	2	1	5	"posLeft"	2	"l"	"a"	"APproc"	1	"practiceAP"	"yes"	6	"l"	"blackFace6.bmp"	"1200"	"black"	"2"	"+"	"1"	"l"	"l"	"265"	"negative"	"garbage"
4	1	1	2	1	5	"posLeft"	2	"l"	"a"	"APproc"	1	"practiceAP"	"yes"	7	"l"	"whiteFace6.bmp"	"1000"	"white"	"2"	"+"	"1"	"l"	"l"	"241"	"negative"	"garbage"
4	1	1	2	1	5	"posLeft"	2	"l"	"a"	"APproc"	1	"practiceAP"	"yes"	8	"l"	"blackFace3.bmp"	"800"	"black"	"2"	"+"	"1"	"l"	"l"	"272"	"negative"	"vomit"
4	1	1	2	1	5	"posLeft"	2	"l"	"a"	"APproc"	1	"practiceAP"	"yes"	9	"l"	"whiteFace8.bmp"	"1000"	"white"	"2"	"+"	"1"	"l"	"l"	"247"	"negative"	"garbage"
4	1	1	2	1	5	"posLeft"	2	"l"	"a"	"APproc"	1	"practiceAP"	"yes"	10	"a"	"whiteFace1.bmp"	"1200"	"white"	"2"	"+"	"1"	"a"	"a"	"223"	"positive"	"beauty"
4	1	1	2	1	5	"posLeft"	2	"l"	"a"	"APproc"	1	"practiceAP"	"yes"	11	"l"	"blackFace1.bmp"	"800"	"black"	"2"	"+"	"1"	"l"	"l"	"406"	"negative"	"poison"
4	1	1	2	1	5	"posLeft"	2	"l"	"a"	"APproc"	1	"practiceAP"	"yes"	12	"a"	"whiteFace3.bmp"	"1000"	"white"	"1"	"+"	"0"	"a"	"l"	"285"	"positive"	"beauty"
4	1	1	2	1	5	"posLeft"	2	"l"	"a"	"APproc"	1	"practiceAP"	"yes"	13	"a"	"whiteFace5.bmp"	"1200"	"white"	"2"	"+"	"1"	"a"	"a"	"213"	"positive"	"smile"
4	1	1	2	1	5	"posLeft"	2	"l"	"a"	"APproc"	1	"practiceAP"	"yes"	14	"a"	"blackFace6.bmp"	"800"	"black"	"2"	"+"	"1"	"a"	"a"	"196"	"positive"	"paradise"
4	1	1	2	1	5	"posLeft"	2	"l"	"a"	"APproc"	1	"practiceAP"	"yes"	15	"l"	"blackFace8.bmp"	"800"	"black"	"1"	"+"	"0"	"l"	"a"	"332"	"negative"	"garbage"
4	1	1	2	1	5	"posLeft"	2	"l"	"a"	"APproc"	1	"practiceAP"	"yes"	16	"a"	"blackFace3.bmp"	"1200"	"black"	"1"	"+"	"0"	"a"	"l"	"290"	"positive"	"beauty"
4	1	1	2	1	5	"posLeft"	2	"l"	"a"	"APproc"	2	"AP"	"no"	1	"a"	"blackFace5.bmp"	"1000"	"black"	"1"	"+"	"0"	"a"	"l"	"257"	"positive"	"beauty"
4	1	1	2	1	5	"posLeft"	2	"l"	"a"	"APproc"	2	"AP"	"no"	2	"a"	"whiteFace6.bmp"	"1200"	"white"	"2"	"+"	"1"	"a"	"a"	"257"	"positive"	"love"
4	1	1	2	1	5	"posLeft"	2	"l"	"a"	"APproc"	2	"AP"	"no"	3	"a"	"whiteFace3.bmp"	"1000"	"white"	"2"	"+"	"1"	"a"	"a"	"40"	"positive"	"beauty"
4	1	1	2	1	5	"posLeft"	2	"l"	"a"	"APproc"	2	"AP"	"no"	4	"a"	"blackFace1.bmp"	"800"	"black"	"3"	"TOO SLOW"	"0"	"a"	""	"0"	"positive"	"paradise"
4	1	1	2	1	5	"posLeft"	2	"l"	"a"	"APproc"	2	"AP"	"no"	5	"a"	"whiteFace2.bmp"	"1000"	"white"	"2"	"+"	"1"	"a"	"a"	"252"	"positive"	"love"
4	1	1	2	1	5	"posLeft"	2	"l"	"a"	"APproc"	2	"AP"	"no"	6	"a"	"whiteFace5.bmp"	"800"	"white"	"1"	"+"	"0"	"a"	"l"	"36"	"positive"	"smile"
4	1	1	2	1	5	"posLeft"	2	"l"	"a"	"APproc"	2	"AP"	"no"	7	"a"	"blackFace3.bmp"	"1200"	"black"	"2"	"+"	"1"	"a"	"a"	"25"	"positive"	"paradise"
4	1	1	2	1	5	"posLeft"	2	"l"	"a"	"APproc"	2	"AP"	"no"	8	"l"	"whiteFace4.bmp"	"1200"	"white"	"3"	"TOO SLOW"	"0"	"l"	""	"0"	"negative"	"poison"
4	1	1	2	1	5	"posLeft"	2	"l"	"a"	"APproc"	2	"AP"	"no"	9	"a"	"blackFace7.bmp"	"800"	"black"	"1"	"+"	"0"	"a"	"l"	"14"	"positive"	"smile"
4	1	1	2	1	5	"posLeft"	2	"l"	"a"	"APproc"	2	"AP"	"no"	10	"a"	"blackFace5.bmp"	"1000"	"black"	"2"	"+"	"1"	"a"	"a"	"237"	"positive"	"paradise"
4	1	1	2	1	5	"posLeft"	2	"l"	"a"	"APproc"	2	"AP"	"no"	11	"a"	"whiteFace4.bmp"	"1200"	"white"	"2"	"+"	"1"	"a"	"a"	"84"	"positive"	"paradise"
4	1	1	2	1	5	"posLeft"	2	"l"	"a"	"APproc"	2	"AP"	"no"	12	"a"	"blackFace7.bmp"	"1000"	"black"	"2"	"+"	"1"	"a"	"a"	"200"	"positive"	"paradise"
4	1	1	2	1	5	"posLeft"	2	"l"	"a"	"APproc"	2	"AP"	"no"	13	"l"	"whiteFace2.bmp"	"800"	"white"	"1"	"+"	"0"	"l"	"a"	"223"	"negative"	"poison"
4	1	1	2	1	5	"posLeft"	2	"l"	"a"	"APproc"	2	"AP"	"no"	14	"a"	"blackFace2.bmp"	"1000"	"black"	"2"	"+"	"1"	"a"	"a"	"174"	"positive"	"love"
4	1	1	2	1	5	"posLeft"	2	"l"	"a"	"APproc"	2	"AP"	"no"	15	"a"	"whiteFace6.bmp"	"800"	"white"	"1"	"+"	"0"	"a"	"l"	"30"	"positive"	"paradise"
4	1	1	2	1	5	"posLeft"	2	"l"	"a"	"APproc"	2	"AP"	"no"	16	"l"	"whiteFace4.bmp"	"1200"	"white"	"1"	"+"	"0"	"l"	"a"	"100"	"negative"	"sewage"
4	1	1	2	1	5	"posLeft"	2	"l"	"a"	"APproc"	2	"AP"	"no"	17	"l"	"whiteFace6.bmp"	"800"	"white"	"3"	"TOO SLOW"	"0"	"l"	""	"0"	"negative"	"sewage"
4	1	1	2	1	5	"posLeft"	2	"l"	"a"	"APproc"	2	"AP"	"no"	18	"l"	"whiteFace1.bmp"	"1000"	"white"	"2"	"+"	"1"	"l"	"l"	"47"	"negative"	"vomit"
4	1	1	2	1	5	"posLeft"	2	"l"	"a"	"APproc"	2	"AP"	"no"	19	"l"	"blackFace2.bmp"	"1200"	"black"	"2"	"+"	"1"	"l"	"l"	"69"	"negative"	"vomit"
4	1	1	2	1	5	"posLeft"	2	"l"	"a"	"APproc"	2	"AP"	"no"	20	"a"	"blackFace8.bmp"	"1200"	"black"	"1"	"+"	"0"	"a"	"l"	"249"	"positive"	"paradise"
4	1	1	2	1	5	"posLeft"	2	"l"	"a"	"APproc"	2	"AP"	"no"	21	"a"	"blackFace7.bmp"	"1000"	"black"	"3"	"TOO SLOW"	"0"	"a"	""	"0"	"positive"	"beauty"
4	1	1	2	1	5	"posLeft"	2	"l"	"a"	"APproc"	2	"AP"	"no"	22	"l"	"whiteFace8.bmp"	"800"	"white"	"1"	"+"	"0"	"l"	"a"	"175"	"negative"	"garbage"
4	1	1	2	1	5	"posLeft"	2	"l"	"a"	"APproc"	2	"AP"	"no"	23	"a"	"whiteFace1.bmp"	"1000"	"white"	"2"	"+"	"1"	"a"	"a"	"39"	"positive"	"love"
4	1	1	2	1	5	"posLeft"	2	"l"	"a"	"APproc"	2	"AP"	"no"	24	"l"	"blackFace1.bmp"	"800"	"black"	"2"	"+"	"1"	"l"	"l"	"141"	"negative"	"vomit"
4	1	1	2	1	5	"posLeft"	2	"l"	"a"	"APproc"	2	"AP"	"no"	25	"l"	"whiteFace6.bmp"	"1200"	"white"	"2"	"+"	"1"	"l"	"l"	"182"	"negative"	"garbage"
4	1	1	2	1	5	"posLeft"	2	"l"	"a"	"APproc"	2	"AP"	"no"	26	"a"	"blackFace6.bmp"	"1200"	"black"	"1"	"+"	"0"	"a"	"l"	"38"	"positive"	"paradise"
4	1	1	2	1	5	"posLeft"	2	"l"	"a"	"APproc"	2	"AP"	"no"	27	"a"	"whiteFace8.bmp"	"1000"	"white"	"2"	"+"	"1"	"a"	"a"	"60"	"positive"	"love"
4	1	1	2	1	5	"posLeft"	2	"l"	"a"	"APproc"	2	"AP"	"no"	28	"a"	"blackFace4.bmp"	"800"	"black"	"3"	"TOO SLOW"	"0"	"a"	""	"0"	"positive"	"smile"
4	1	1	2	1	5	"posLeft"	2	"l"	"a"	"APproc"	2	"AP"	"no"	29	"a"	"blackFace1.bmp"	"800"	"black"	"1"	"+"	"0"	"a"	"l"	"142"	"positive"	"smile"
4	1	1	2	1	5	"posLeft"	2	"l"	"a"	"APproc"	2	"AP"	"no"	30	"a"	"blackFace3.bmp"	"1000"	"black"	"2"	"+"	"1"	"a"	"a"	"63"	"positive"	"smile"
4	1	1	2	1	5	"posLeft"	2	"l"	"a"	"APproc"	2	"AP"	"no"	31	"l"	"blackFace7.bmp"	"1200"	"black"	"1"	"+"	"0"	"l"	"a"	"4"	"negative"	"garbage"
4	1	1	2	1	5	"posLeft"	2	"l"	"a"	"APproc"	2	"AP"	"no"	32	"a"	"whiteFace2.bmp"	"1000"	"white"	"2"	"+"	"1"	"a"	"a"	"251"	"positive"	"smile"
4	1	1	2	1	5	"posLeft"	2	"l"	"a"	"APproc"	2	"AP"	"no"	33	"l"	"whiteFace5.bmp"	"1200"	"white"	"3"	"TOO SLOW"	"0"	"l"	""	"0"	"negative"	"sewage"
4	1	1	2	1	5	"posLeft"	2	"l"	"a"	"APproc"	2	"AP"	"no"	34	"l"	"blackFace4.bmp"	"800"	"black"	"3"	"TOO SLOW"	"0"	"l"	""	"0"	"negative"	"garbage"
4	1	1	2	1	5	"posLeft"	2	"l"	"a"	"APproc"	2	"AP"	"no"	35	"l"	"blackFace3.bmp"	"1200"	"black"	"2"	"+"	"1"	"l"	"l"	"24"	"negative"	"sewage"
4	1	1	2	1	5	"posLeft"	2	"l"	"a"	"APproc"	2	"AP"	"no"	36	"a"	"whiteFace7.bmp"	"1000"	"white"	"1"	"+"	"0"	"a"	"l"	"190"	"positive"	"love"
4	1	1	2	1	5	"posLeft"	2	"l"	"a"	"APproc"	2	"AP"	"no"	37	"l"	"blackFace5.bmp"	"800"	"black"	"1"	"+"	"0"	"l"	"a"	"29"	"negative"	"vomit"
4	1	1	2	1	5	"posLeft"	2	"l"	"a"	"APproc"	2	"AP"	"no"	38	"l"	"blackFace8.bmp"	"800"	"black"	"2"	"+"	"1"	"l"	"l"	"124"	"negative"	"vomit"
4	1	1	2	1	5	"posLeft"	2	"l"	"a"	"APproc"	2	"AP"	"no"	39	"a"	"blackFace1.bmp"	"1000"	"black"	"1"	"+"	"0"	"a"	"l"	"182"	"positive"	"love"
4	1	1	2	1	5	"posLeft"	2	"l"	"a"	"APproc"	2	"AP"	"no"	40	"l"	"blackFace3.bmp"	"1200"	"black"	"3"	"TOO SLOW"	"0"	"l"	""	"0"	"negative"	"vomit"
4	1	1	2	1	5	"posLeft"	2	"l"	"a"	"APproc"	2	"AP"	"no"	41	"l"	"whiteFace1.bmp"	"1000"	"white"	"2"	"+"	"1"	"l"	"l"	"85"	"negative"	"garbage"
4	1	1	2	1	5	"posLeft"	2	"l"	"a"	"APproc"	2	"AP"	"no"	42	"l"	"blackFace7.bmp"	"800"	"black"	"2"	"+"	"1"	"l"	"l"	"224"	"negative"	"poison"
4	1	1	2	1	5	"posLeft"	2	"l"	"a"	"APproc"	2	"AP"	"no"	43	"a"	"whiteFace4.bmp"	"1200"	"white"	"1"	"+"	"0"	"a"	"l"	"8"	"positive"	"smile"
4	1	1	2	1	5	"posLeft"	2	"l"	"a"	"APproc"	2	"AP"	"no"	44	"l"	"whiteFace6.bmp"	"1000"	"white"	"1"	"+"	"0"	"l"	"a"	"110"	"negative"	"vomit"
4	1	1	2	1	5	"posLeft"	2	"l"	"a"	"APproc"	2	"AP"	"no"	45	"l"	"blackFace7.bmp"	"800"	"black"	"2"	"+"	"1"	"l"	"l"	"25"	"negative"	"vomit"
4	1	1	2	1	5	"posLeft"	2	"l"	"a"	"APproc"	2	"AP"	"no"	46	"l"	"blackFace2.bmp"	"1200"	"black"	"3"	"TOO SLOW"	"0"	"l"	""	"0"	"negative"	"garbage"
4	1	1	2	1	5	"posLeft"	2	"l"	"a"	"APproc"	2	"AP"	"no"	47	"a"	"blackFace2.bmp"	"800"	"black"	"3"	"TOO SLOW"	"0"	"a"	""	"0"	"positive"	"smile"
4	1	1	2	1	5	"posLeft"	2	"l"	"a"	"APproc"	2	"AP"	"no"	48	"a"	"whiteFace1.bmp"	"1200"	"white"	"1"	"+"	"0"	"a"	"l"	"413"	"positive"	"beauty"
4	1	1	2	1	5	"posLeft"	2	"l"	"a"	"APproc"	2	"AP"	"no"	49	"l"	"whiteFace2.bmp"	"1000"	"white"	"1"	"+"	"0"	"l"	"a"	"85"	"negative"	"garbage"
4	1	1	2	1	5	"posLeft"	2	"l"	"a"	"APproc"	2	"AP"	"no"	50	"l"	"whiteFace2.bmp"	"800"	"white"	"3"	"TOO SLOW"	"0"	"l"	""	"0"	"negative"	"sewage"
4	1	1	2	1	5	"posLeft"	2	"l"	"a"	"APproc"	2	"AP"	"no"	51	"a"	"whiteFace7.bmp"	"1200"	"white"	"1"	"+"	"0"	"a"	"l"	"39"	"positive"	"smile"
4	1	1	2	1	5	"posLeft"	2	"l"	"a"	"APproc"	2	"AP"	"no"	52	"l"	"whiteFace7.bmp"	"1000"	"white"	"1"	"+"	"0"	"l"	"a"	"69"	"negative"	"sewage"
4	1	1	2	1	5	"posLeft"	2	"l"	"a"	"APproc"	2	"AP"	"no"	53	"a"	"whiteFace3.bmp"	"800"	"white"	"1"	"+"	"0"	"a"	"l"	"49"	"positive"	"smile"
4	1	1	2	1	5	"posLeft"	2	"l"	"a"	"APproc"	2	"AP"	"no"	54	"l"	"blackFace2.bmp"	"1000"	"black"	"1"	"+"	"0"	"l"	"a"	"222"	"negative"	"sewage"
4	1	1	2	1	5	"posLeft"	2	"l"	"a"	"APproc"	2	"AP"	"no"	55	"a"	"blackFace6.bmp"	"1200"	"black"	"1"	"+"	"0"	"a"	"l"	"141"	"positive"	"beauty"
4	1	1	2	1	5	"posLeft"	2	"l"	"a"	"APproc"	2	"AP"	"no"	56	"l"	"whiteFace3.bmp"	"1200"	"white"	"2"	"+"	"1"	"l"	"l"	"7"	"negative"	"poison"
4	1	1	2	1	5	"posLeft"	2	"l"	"a"	"APproc"	2	"AP"	"no"	57	"l"	"blackFace8.bmp"	"800"	"black"	"2"	"+"	"1"	"l"	"l"	"237"	"negative"	"sewage"
