"Subject"	"Session"	"DemoAge.RESP"	"DemoEthnicity.RESP"	"DemoGender.RESP"	"DemoRace.RESP"	"responseMappingTool"	"Block"	"Procedure.Block."	"toolResponse"	"weaponResponse"	"Trial"	"blockName"	"Practice.Trial."	"SubTrial"	"CorrectResponse"	"facePictureFile"	"ITIDuration"	"PrimeType"	"responseAccData"	"rtFeedbackText"	"targetPictureFile"	"TargetType"	"TargetWIT.ACC"	"TargetWIT.CRESP"	"TargetWIT.RESP"	"TargetWIT.RT"	"errorQSlide.RESP"	"IMS"	"EMS"
1	1	1	3	2	5	"toolRight"	1	"WITproc"	"l"	"a"	2	"WIT"	"no"	1	"a"	"blackFace5.bmp"	800	"black"	2	"+"	"weapon3.bmp"	"weapon"	1	"a"	"a"	457	NA	5.6	2.2
1	1	1	3	2	5	"toolRight"	1	"WITproc"	"l"	"a"	2	"WIT"	"no"	2	"a"	"blackFace7.bmp"	1000	"black"	2	"+"	"weapon4.bmp"	"weapon"	1	"a"	"a"	472	NA	5.6	2.2
1	1	1	3	2	5	"toolRight"	1	"WITproc"	"l"	"a"	2	"WIT"	"no"	3	"a"	"whiteFace2.bmp"	1200	"white"	1	"+"	"weapon4.bmp"	"weapon"	0	"a"	"l"	336	NA	5.6	2.2
1	1	1	3	2	5	"toolRight"	1	"WITproc"	"l"	"a"	2	"WIT"	"no"	4	"l"	"whiteFace4.bmp"	800	"white"	3	"TOO SLOW"	"tool2.bmp"	"tool"	0	"l"	""	0	NA	5.6	2.2
1	1	1	3	2	5	"toolRight"	1	"WITproc"	"l"	"a"	2	"WIT"	"no"	5	"l"	"whiteFace6.bmp"	1000	"white"	2	"+"	"tool4.bmp"	"tool"	1	"l"	"l"	470	NA	5.6	2.2
1	1	1	3	2	5	"toolRight"	1	"WITproc"	"l"	"a"	2	"WIT"	"no"	6	"a"	"whiteFace2.bmp"	1200	"white"	2	"+"	"weapon2.bmp"	"weapon"	1	"a"	"a"	454	NA	5.6	2.2
1	1	1	3	2	5	"toolRight"	1	"WITproc"	"l"	"a"	2	"WIT"	"no"	7	"a"	"blackFace1.bmp"	1000	"black"	3	"TOO SLOW"	"weapon4.bmp"	"weapon"	0	"a"	""	0	NA	5.6	2.2
1	1	1	3	2	5	"toolRight"	1	"WITproc"	"l"	"a"	2	"WIT"	"no"	8	"a"	"blackFace3.bmp"	800	"black"	2	"+"	"weapon3.bmp"	"weapon"	1	"a"	"a"	436	NA	5.6	2.2
1	1	1	3	2	5	"toolRight"	1	"WITproc"	"l"	"a"	2	"WIT"	"no"	9	"a"	"whiteFace2.bmp"	1200	"white"	1	"+"	"weapon3.bmp"	"weapon"	0	"a"	"l"	308	NA	5.6	2.2
1	1	1	3	2	5	"toolRight"	1	"WITproc"	"l"	"a"	2	"WIT"	"no"	10	"a"	"whiteFace7.bmp"	800	"white"	1	"+"	"weapon1.bmp"	"weapon"	0	"a"	"l"	347	NA	5.6	2.2
1	1	1	3	2	5	"toolRight"	1	"WITproc"	"l"	"a"	2	"WIT"	"no"	11	"l"	"blackFace8.bmp"	1000	"black"	1	"+"	"tool3.bmp"	"tool"	0	"l"	"a"	378	NA	5.6	2.2
1	1	1	3	2	5	"toolRight"	1	"WITproc"	"l"	"a"	2	"WIT"	"no"	12	"a"	"whiteFace6.bmp"	800	"white"	2	"+"	"weapon1.bmp"	"weapon"	1	"a"	"a"	450	NA	5.6	2.2
1	1	1	3	2	5	"toolRight"	1	"WITproc"	"l"	"a"	2	"WIT"	"no"	13	"l"	"blackFace7.bmp"	1200	"black"	2	"+"	"tool4.bmp"	"tool"	1	"l"	"l"	481	NA	5.6	2.2
1	1	1	3	2	5	"toolRight"	1	"WITproc"	"l"	"a"	2	"WIT"	"no"	14	"l"	"blackFace2.bmp"	1000	"black"	2	"+"	"tool2.bmp"	"tool"	1	"l"	"l"	425	NA	5.6	2.2
1	1	1	3	2	5	"toolRight"	1	"WITproc"	"l"	"a"	2	"WIT"	"no"	15	"a"	"whiteFace1.bmp"	1000	"white"	3	"TOO SLOW"	"weapon2.bmp"	"weapon"	0	"a"	""	0	NA	5.6	2.2
1	1	1	3	2	5	"toolRight"	1	"WITproc"	"l"	"a"	2	"WIT"	"no"	16	"a"	"whiteFace1.bmp"	800	"white"	3	"TOO SLOW"	"weapon4.bmp"	"weapon"	0	"a"	""	0	NA	5.6	2.2
1	1	1	3	2	5	"toolRight"	1	"WITproc"	"l"	"a"	2	"WIT"	"no"	17	"l"	"blackFace5.bmp"	1200	"black"	2	"+"	"tool4.bmp"	"tool"	1	"l"	"l"	453	NA	5.6	2.2
1	1	1	3	2	5	"toolRight"	1	"WITproc"	"l"	"a"	2	"WIT"	"no"	18	"a"	"blackFace2.bmp"	1200	"black"	2	"+"	"weapon1.bmp"	"weapon"	1	"a"	"a"	324	NA	5.6	2.2
1	1	1	3	2	5	"toolRight"	1	"WITproc"	"l"	"a"	2	"WIT"	"no"	19	"l"	"blackFace7.bmp"	800	"black"	1	"+"	"tool3.bmp"	"tool"	0	"l"	"a"	396	NA	5.6	2.2
1	1	1	3	2	5	"toolRight"	1	"WITproc"	"l"	"a"	2	"WIT"	"no"	20	"l"	"whiteFace1.bmp"	1000	"white"	3	"TOO SLOW"	"tool2.bmp"	"tool"	0	"l"	""	0	NA	5.6	2.2
1	1	1	3	2	5	"toolRight"	1	"WITproc"	"l"	"a"	2	"WIT"	"no"	21	"a"	"blackFace1.bmp"	800	"black"	1	"+"	"weapon2.bmp"	"weapon"	0	"a"	"l"	210	NA	5.6	2.2
1	1	1	3	2	5	"toolRight"	1	"WITproc"	"l"	"a"	2	"WIT"	"no"	22	"l"	"whiteFace4.bmp"	1200	"white"	1	"+"	"tool4.bmp"	"tool"	0	"l"	"a"	370	NA	5.6	2.2
1	1	1	3	2	5	"toolRight"	1	"WITproc"	"l"	"a"	2	"WIT"	"no"	23	"l"	"blackFace2.bmp"	1000	"black"	2	"+"	"tool4.bmp"	"tool"	1	"l"	"l"	441	NA	5.6	2.2
1	1	1	3	2	5	"toolRight"	1	"WITproc"	"l"	"a"	2	"WIT"	"no"	24	"l"	"whiteFace7.bmp"	1200	"white"	3	"TOO SLOW"	"tool4.bmp"	"tool"	0	"l"	""	0	NA	5.6	2.2
1	1	1	3	2	5	"toolRight"	1	"WITproc"	"l"	"a"	2	"WIT"	"no"	25	"a"	"blackFace2.bmp"	800	"black"	2	"+"	"weapon3.bmp"	"weapon"	1	"a"	"a"	480	NA	5.6	2.2
1	1	1	3	2	5	"toolRight"	1	"WITproc"	"l"	"a"	2	"WIT"	"no"	26	"a"	"whiteFace3.bmp"	1000	"white"	2	"+"	"weapon2.bmp"	"weapon"	1	"a"	"a"	391	NA	5.6	2.2
1	1	1	3	2	5	"toolRight"	1	"WITproc"	"l"	"a"	2	"WIT"	"no"	27	"a"	"whiteFace8.bmp"	800	"white"	1	"+"	"weapon1.bmp"	"weapon"	0	"a"	"l"	439	NA	5.6	2.2
1	1	1	3	2	5	"toolRight"	1	"WITproc"	"l"	"a"	2	"WIT"	"no"	28	"l"	"whiteFace1.bmp"	1200	"white"	3	"TOO SLOW"	"tool4.bmp"	"tool"	0	"l"	""	0	NA	5.6	2.2
1	1	1	3	2	5	"toolRight"	1	"WITproc"	"l"	"a"	2	"WIT"	"no"	29	"l"	"whiteFace7.bmp"	1000	"white"	1	"+"	"tool1.bmp"	"tool"	0	"l"	"a"	293	NA	5.6	2.2
1	1	1	3	2	5	"toolRight"	1	"WITproc"	"l"	"a"	2	"WIT"	"no"	30	"l"	"blackFace1.bmp"	1000	"black"	3	"TOO SLOW"	"tool3.bmp"	"tool"	0	"l"	""	0	NA	5.6	2.2
1	1	1	3	2	5	"toolRight"	1	"WITproc"	"l"	"a"	2	"WIT"	"no"	31	"l"	"blackFace1.bmp"	800	"black"	2	"+"	"tool4.bmp"	"tool"	1	"l"	"l"	252	NA	5.6	2.2
1	1	1	3	2	5	"toolRight"	1	"WITproc"	"l"	"a"	2	"WIT"	"no"	32	"a"	"whiteFace4.bmp"	1200	"white"	2	"+"	"weapon4.bmp"	"weapon"	1	"a"	"a"	411	NA	5.6	2.2
1	1	1	3	2	5	"toolRight"	1	"WITproc"	"l"	"a"	2	"WIT"	"no"	33	"a"	"whiteFace3.bmp"	800	"white"	2	"+"	"weapon4.bmp"	"weapon"	1	"a"	"a"	411	NA	5.6	2.2
1	1	1	3	2	5	"toolRight"	1	"WITproc"	"l"	"a"	2	"WIT"	"no"	34	"a"	"blackFace1.bmp"	1200	"black"	2	"+"	"weapon3.bmp"	"weapon"	1	"a"	"a"	490	NA	5.6	2.2
1	1	1	3	2	5	"toolRight"	1	"WITproc"	"l"	"a"	2	"WIT"	"no"	35	"l"	"whiteFace5.bmp"	1000	"white"	2	"+"	"tool1.bmp"	"tool"	1	"l"	"l"	402	NA	5.6	2.2
1	1	1	3	2	5	"toolRight"	1	"WITproc"	"l"	"a"	2	"WIT"	"no"	36	"l"	"whiteFace3.bmp"	1200	"white"	1	"+"	"tool1.bmp"	"tool"	0	"l"	"a"	417	NA	5.6	2.2
1	1	1	3	2	5	"toolRight"	1	"WITproc"	"l"	"a"	2	"WIT"	"no"	37	"l"	"whiteFace2.bmp"	1000	"white"	1	"+"	"tool2.bmp"	"tool"	0	"l"	"a"	304	NA	5.6	2.2
1	1	1	3	2	5	"toolRight"	1	"WITproc"	"l"	"a"	2	"WIT"	"no"	38	"a"	"whiteFace7.bmp"	800	"white"	3	"TOO SLOW"	"weapon4.bmp"	"weapon"	0	"a"	""	0	NA	5.6	2.2
1	1	1	3	2	5	"toolRight"	1	"WITproc"	"l"	"a"	2	"WIT"	"no"	39	"a"	"blackFace6.bmp"	1200	"black"	1	"+"	"weapon3.bmp"	"weapon"	0	"a"	"l"	263	NA	5.6	2.2
1	1	1	3	2	5	"toolRight"	1	"WITproc"	"l"	"a"	2	"WIT"	"no"	40	"a"	"blackFace5.bmp"	800	"black"	2	"+"	"weapon1.bmp"	"weapon"	1	"a"	"a"	230	NA	5.6	2.2
1	1	1	3	2	5	"toolRight"	1	"WITproc"	"l"	"a"	2	"WIT"	"no"	41	"l"	"whiteFace3.bmp"	1000	"white"	1	"+"	"tool2.bmp"	"tool"	0	"l"	"a"	382	NA	5.6	2.2
1	1	1	3	2	5	"toolRight"	1	"WITproc"	"l"	"a"	2	"WIT"	"no"	42	"l"	"whiteFace7.bmp"	1000	"white"	1	"+"	"tool3.bmp"	"tool"	0	"l"	"a"	421	NA	5.6	2.2
1	1	1	3	2	5	"toolRight"	1	"WITproc"	"l"	"a"	2	"WIT"	"no"	43	"l"	"blackFace8.bmp"	800	"black"	2	"+"	"tool1.bmp"	"tool"	1	"l"	"l"	388	NA	5.6	2.2
1	1	1	3	2	5	"toolRight"	1	"WITproc"	"l"	"a"	2	"WIT"	"no"	44	"a"	"blackFace7.bmp"	1200	"black"	1	"+"	"weapon2.bmp"	"weapon"	0	"a"	"l"	380	NA	5.6	2.2
1	1	1	3	2	5	"toolRight"	1	"WITproc"	"l"	"a"	2	"WIT"	"no"	45	"a"	"blackFace8.bmp"	800	"black"	2	"+"	"weapon2.bmp"	"weapon"	1	"a"	"a"	363	NA	5.6	2.2
1	1	1	3	2	5	"toolRight"	1	"WITproc"	"l"	"a"	2	"WIT"	"no"	46	"l"	"blackFace3.bmp"	1000	"black"	1	"+"	"tool4.bmp"	"tool"	0	"l"	"a"	323	NA	5.6	2.2
1	1	1	3	2	5	"toolRight"	1	"WITproc"	"l"	"a"	2	"WIT"	"no"	47	"a"	"blackFace3.bmp"	1200	"black"	1	"+"	"weapon2.bmp"	"weapon"	0	"a"	"l"	354	NA	5.6	2.2
1	1	1	3	2	5	"toolRight"	1	"WITproc"	"l"	"a"	2	"WIT"	"no"	48	"a"	"whiteFace6.bmp"	1000	"white"	2	"+"	"weapon4.bmp"	"weapon"	1	"a"	"a"	328	NA	5.6	2.2
1	1	1	3	2	5	"toolRight"	1	"WITproc"	"l"	"a"	2	"WIT"	"no"	49	"a"	"whiteFace5.bmp"	1200	"white"	2	"+"	"weapon1.bmp"	"weapon"	1	"a"	"a"	376	NA	5.6	2.2
1	1	1	3	2	5	"toolRight"	1	"WITproc"	"l"	"a"	2	"WIT"	"no"	50	"l"	"blackFace3.bmp"	800	"black"	1	"+"	"tool3.bmp"	"tool"	0	"l"	"a"	343	NA	5.6	2.2
1	1	1	3	2	5	"toolRight"	1	"WITproc"	"l"	"a"	2	"WIT"	"no"	51	"l"	"whiteFace5.bmp"	800	"white"	3	"TOO SLOW"	"tool4.bmp"	"tool"	0	"l"	""	0	NA	5.6	2.2
1	1	1	3	2	5	"toolRight"	1	"WITproc"	"l"	"a"	2	"WIT"	"no"	52	"l"	"blackFace6.bmp"	1200	"black"	2	"+"	"tool3.bmp"	"tool"	1	"l"	"l"	333	NA	5.6	2.2
1	1	1	3	2	5	"toolRight"	1	"WITproc"	"l"	"a"	2	"WIT"	"no"	53	"l"	"blackFace4.bmp"	1000	"black"	2	"+"	"tool4.bmp"	"tool"	1	"l"	"l"	164	NA	5.6	2.2
1	1	1	3	2	5	"toolRight"	1	"WITproc"	"l"	"a"	2	"WIT"	"no"	54	"l"	"whiteFace6.bmp"	1000	"white"	1	"+"	"tool2.bmp"	"tool"	0	"l"	"a"	276	NA	5.6	2.2
1	1	1	3	2	5	"toolRight"	1	"WITproc"	"l"	"a"	2	"WIT"	"no"	55	"l"	"whiteFace6.bmp"	800	"white"	1	"+"	"tool3.bmp"	"tool"	0	"l"	"a"	347	NA	5.6	2.2
1	1	1	3	2	5	"toolRight"	1	"WITproc"	"l"	"a"	2	"WIT"	"no"	56	"a"	"blackFace7.bmp"	1200	"black"	1	"+"	"weapon3.bmp"	"weapon"	0	"a"	"l"	315	NA	5.6	2.2
1	1	1	3	2	5	"toolRight"	1	"WITproc"	"l"	"a"	2	"WIT"	"no"	57	"a"	"blackFace5.bmp"	1000	"black"	2	"+"	"weapon4.bmp"	"weapon"	1	"a"	"a"	386	NA	5.6	2.2
1	1	1	3	2	5	"toolRight"	1	"WITproc"	"l"	"a"	2	"WIT"	"no"	58	"l"	"whiteFace8.bmp"	1200	"white"	3	"TOO SLOW"	"tool2.bmp"	"tool"	0	"l"	""	0	NA	5.6	2.2
1	1	1	3	2	5	"toolRight"	1	"WITproc"	"l"	"a"	2	"WIT"	"no"	59	"a"	"blackFace3.bmp"	800	"black"	2	"+"	"weapon4.bmp"	"weapon"	1	"a"	"a"	320	NA	5.6	2.2
1	1	1	3	2	5	"toolRight"	1	"WITproc"	"l"	"a"	2	"WIT"	"no"	60	"l"	"blackFace4.bmp"	1200	"black"	2	"+"	"tool1.bmp"	"tool"	1	"l"	"l"	359	NA	5.6	2.2
1	1	1	3	2	5	"toolRight"	1	"WITproc"	"l"	"a"	2	"WIT"	"no"	61	"l"	"blackFace3.bmp"	1000	"black"	1	"+"	"tool1.bmp"	"tool"	0	"l"	"a"	415	NA	5.6	2.2
1	1	1	3	2	5	"toolRight"	1	"WITproc"	"l"	"a"	2	"WIT"	"no"	62	"a"	"whiteFace3.bmp"	800	"white"	1	"+"	"weapon3.bmp"	"weapon"	0	"a"	"l"	342	NA	5.6	2.2
1	1	1	3	2	5	"toolRight"	1	"WITproc"	"l"	"a"	2	"WIT"	"no"	63	"l"	"blackFace3.bmp"	800	"black"	3	"TOO SLOW"	"tool2.bmp"	"tool"	0	"l"	""	0	NA	5.6	2.2
1	1	1	3	2	5	"toolRight"	1	"WITproc"	"l"	"a"	2	"WIT"	"no"	64	"a"	"whiteFace1.bmp"	1000	"white"	1	"+"	"weapon1.bmp"	"weapon"	0	"a"	"l"	292	NA	5.6	2.2
1	1	1	3	2	5	"toolRight"	1	"WITproc"	"l"	"a"	2	"WIT"	"no"	65	"a"	"whiteFace1.bmp"	1200	"white"	2	"+"	"weapon3.bmp"	"weapon"	1	"a"	"a"	371	NA	5.6	2.2
1	1	1	3	2	5	"toolRight"	1	"WITproc"	"l"	"a"	2	"WIT"	"no"	66	"l"	"blackFace6.bmp"	800	"black"	1	"+"	"tool2.bmp"	"tool"	0	"l"	"a"	411	NA	5.6	2.2
1	1	1	3	2	5	"toolRight"	1	"WITproc"	"l"	"a"	2	"WIT"	"no"	67	"l"	"whiteFace6.bmp"	1200	"white"	1	"+"	"tool1.bmp"	"tool"	0	"l"	"a"	362	NA	5.6	2.2
1	1	1	3	2	5	"toolRight"	1	"WITproc"	"l"	"a"	2	"WIT"	"no"	68	"a"	"blackFace2.bmp"	1000	"black"	2	"+"	"weapon4.bmp"	"weapon"	1	"a"	"a"	370	NA	5.6	2.2
1	1	1	3	2	5	"toolRight"	1	"WITproc"	"l"	"a"	2	"WIT"	"no"	69	"l"	"blackFace1.bmp"	1200	"black"	2	"+"	"tool1.bmp"	"tool"	1	"l"	"l"	305	NA	5.6	2.2
1	1	1	3	2	5	"toolRight"	1	"WITproc"	"l"	"a"	2	"WIT"	"no"	70	"l"	"blackFace6.bmp"	1000	"black"	1	"+"	"tool4.bmp"	"tool"	0	"l"	"a"	336	NA	5.6	2.2
1	1	1	3	2	5	"toolRight"	1	"WITproc"	"l"	"a"	2	"WIT"	"no"	71	"a"	"blackFace6.bmp"	800	"black"	2	"+"	"weapon1.bmp"	"weapon"	1	"a"	"a"	408	NA	5.6	2.2
1	1	1	3	2	5	"toolRight"	1	"WITproc"	"l"	"a"	2	"WIT"	"no"	72	"a"	"whiteFace5.bmp"	1200	"white"	1	"+"	"weapon4.bmp"	"weapon"	0	"a"	"l"	399	NA	5.6	2.2
1	1	1	3	2	5	"toolRight"	1	"WITproc"	"l"	"a"	2	"WIT"	"no"	73	"l"	"whiteFace8.bmp"	1000	"white"	3	"TOO SLOW"	"tool3.bmp"	"tool"	0	"l"	""	0	NA	5.6	2.2
1	1	1	3	2	5	"toolRight"	1	"WITproc"	"l"	"a"	2	"WIT"	"no"	74	"a"	"whiteFace7.bmp"	800	"white"	2	"+"	"weapon3.bmp"	"weapon"	1	"a"	"a"	421	NA	5.6	2.2
1	1	1	3	2	5	"toolRight"	1	"WITproc"	"l"	"a"	2	"WIT"	"no"	75	"l"	"whiteFace2.bmp"	1200	"white"	1	"+"	"tool4.bmp"	"tool"	0	"l"	"a"	428	NA	5.6	2.2
1	1	1	3	2	5	"toolRight"	1	"WITproc"	"l"	"a"	2	"WIT"	"no"	76	"a"	"whiteFace3.bmp"	1000	"white"	2	"+"	"weapon1.bmp"	"weapon"	1	"a"	"a"	388	NA	5.6	2.2
1	1	1	3	2	5	"toolRight"	1	"WITproc"	"l"	"a"	2	"WIT"	"no"	77	"l"	"blackFace8.bmp"	800	"black"	2	"+"	"tool2.bmp"	"tool"	1	"l"	"l"	259	NA	5.6	2.2
1	1	1	3	2	5	"toolRight"	1	"WITproc"	"l"	"a"	2	"WIT"	"no"	78	"a"	"whiteFace5.bmp"	800	"white"	2	"+"	"weapon2.bmp"	"weapon"	1	"a"	"a"	282	NA	5.6	2.2
1	1	1	3	2	5	"toolRight"	1	"WITproc"	"l"	"a"	2	"WIT"	"no"	79	"a"	"blackFace1.bmp"	1200	"black"	2	"+"	"weapon1.bmp"	"weapon"	1	"a"	"a"	330	NA	5.6	2.2
1	1	1	3	2	5	"toolRight"	1	"WITproc"	"l"	"a"	2	"WIT"	"no"	80	"l"	"whiteFace4.bmp"	1000	"white"	2	"+"	"tool3.bmp"	"tool"	1	"l"	"l"	344	NA	5.6	2.2
1	1	1	3	2	5	"toolRight"	1	"WITproc"	"l"	"a"	2	"WIT"	"no"	81	"l"	"whiteFace2.bmp"	800	"white"	3	"TOO SLOW"	"tool1.bmp"	"tool"	0	"l"	""	0	NA	5.6	2.2
1	1	1	3	2	5	"toolRight"	1	"WITproc"	"l"	"a"	2	"WIT"	"no"	82	"l"	"blackFace7.bmp"	1000	"black"	1	"+"	"tool2.bmp"	"tool"	0	"l"	"a"	278	NA	5.6	2.2
1	1	1	3	2	5	"toolRight"	1	"WITproc"	"l"	"a"	2	"WIT"	"no"	83	"l"	"blackFace5.bmp"	1200	"black"	3	"TOO SLOW"	"tool2.bmp"	"tool"	0	"l"	""	0	NA	5.6	2.2
1	1	1	3	2	5	"toolRight"	1	"WITproc"	"l"	"a"	2	"WIT"	"no"	84	"l"	"whiteFace1.bmp"	1200	"white"	1	"+"	"tool3.bmp"	"tool"	0	"l"	"a"	237	NA	5.6	2.2
1	1	1	3	2	5	"toolRight"	1	"WITproc"	"l"	"a"	2	"WIT"	"no"	85	"a"	"blackFace8.bmp"	800	"black"	1	"+"	"weapon1.bmp"	"weapon"	0	"a"	"l"	260	NA	5.6	2.2
1	1	1	3	2	5	"toolRight"	1	"WITproc"	"l"	"a"	2	"WIT"	"no"	86	"a"	"blackFace4.bmp"	1000	"black"	2	"+"	"weapon1.bmp"	"weapon"	1	"a"	"a"	300	NA	5.6	2.2
1	1	1	3	2	5	"toolRight"	1	"WITproc"	"l"	"a"	2	"WIT"	"no"	87	"a"	"blackFace3.bmp"	1200	"black"	1	"+"	"weapon1.bmp"	"weapon"	0	"a"	"l"	235	NA	5.6	2.2
1	1	1	3	2	5	"toolRight"	1	"WITproc"	"l"	"a"	2	"WIT"	"no"	88	"a"	"blackFace4.bmp"	1000	"black"	2	"+"	"weapon2.bmp"	"weapon"	1	"a"	"a"	179	NA	5.6	2.2
1	1	1	3	2	5	"toolRight"	1	"WITproc"	"l"	"a"	2	"WIT"	"no"	89	"l"	"blackFace6.bmp"	800	"black"	3	"TOO SLOW"	"tool1.bmp"	"tool"	0	"l"	""	0	NA	5.6	2.2
1	1	1	3	2	5	"toolRight"	1	"WITproc"	"l"	"a"	2	"WIT"	"no"	90	"a"	"blackFace8.bmp"	1000	"black"	1	"+"	"weapon4.bmp"	"weapon"	0	"a"	"l"	81	NA	5.6	2.2
1	1	1	3	2	5	"toolRight"	1	"WITproc"	"l"	"a"	2	"WIT"	"no"	91	"a"	"whiteFace4.bmp"	1200	"white"	2	"+"	"weapon1.bmp"	"weapon"	1	"a"	"a"	97	NA	5.6	2.2
1	1	1	3	2	5	"toolRight"	1	"WITproc"	"l"	"a"	2	"WIT"	"no"	92	"l"	"whiteFace5.bmp"	800	"white"	2	"+"	"tool2.bmp"	"tool"	1	"l"	"l"	240	NA	5.6	2.2
1	1	1	3	2	5	"toolRight"	1	"WITproc"	"l"	"a"	2	"WIT"	"no"	93	"l"	"blackFace5.bmp"	800	"black"	2	"+"	"tool3.bmp"	"tool"	1	"l"	"l"	175	NA	5.6	2.2
1	1	1	3	2	5	"toolRight"	1	"WITproc"	"l"	"a"	2	"WIT"	"no"	94	"a"	"whiteFace4.bmp"	1200	"white"	2	"+"	"weapon2.bmp"	"weapon"	1	"a"	"a"	239	NA	5.6	2.2
1	1	1	3	2	5	"toolRight"	1	"WITproc"	"l"	"a"	2	"WIT"	"no"	95	"l"	"blackFace4.bmp"	1000	"black"	1	"+"	"tool2.bmp"	"tool"	0	"l"	"a"	206	NA	5.6	2.2
1	1	1	3	2	5	"toolRight"	1	"WITproc"	"l"	"a"	2	"WIT"	"no"	96	"a"	"whiteFace2.bmp"	800	"white"	1	"+"	"weapon1.bmp"	"weapon"	0	"a"	"l"	229	NA	5.6	2.2
1	1	1	3	2	5	"toolRight"	1	"WITproc"	"l"	"a"	2	"WIT"	"no"	97	"a"	"whiteFace8.bmp"	1200	"white"	2	"+"	"weapon2.bmp"	"weapon"	1	"a"	"a"	336	NA	5.6	2.2
1	1	1	3	2	5	"toolRight"	1	"WITproc"	"l"	"a"	2	"WIT"	"no"	98	"a"	"blackFace4.bmp"	1000	"black"	1	"+"	"weapon3.bmp"	"weapon"	0	"a"	"l"	231	NA	5.6	2.2
1	1	1	3	2	5	"toolRight"	1	"WITproc"	"l"	"a"	2	"WIT"	"no"	99	"l"	"whiteFace4.bmp"	1000	"white"	1	"+"	"tool1.bmp"	"tool"	0	"l"	"a"	326	NA	5.6	2.2
1	1	1	3	2	5	"toolRight"	1	"WITproc"	"l"	"a"	2	"WIT"	"no"	100	"a"	"blackFace6.bmp"	1200	"black"	2	"+"	"weapon2.bmp"	"weapon"	1	"a"	"a"	366	NA	5.6	2.2
1	1	1	3	2	5	"toolRight"	1	"WITproc"	"l"	"a"	2	"WIT"	"no"	101	"l"	"whiteFace7.bmp"	800	"white"	2	"+"	"tool2.bmp"	"tool"	1	"l"	"l"	341	NA	5.6	2.2
1	1	1	3	2	5	"toolRight"	1	"WITproc"	"l"	"a"	2	"WIT"	"no"	102	"a"	"blackFace2.bmp"	800	"black"	2	"+"	"weapon2.bmp"	"weapon"	1	"a"	"a"	284	NA	5.6	2.2
1	1	1	3	2	5	"toolRight"	1	"WITproc"	"l"	"a"	2	"WIT"	"no"	103	"l"	"whiteFace3.bmp"	1200	"white"	1	"+"	"tool3.bmp"	"tool"	0	"l"	"a"	340	NA	5.6	2.2
1	1	1	3	2	5	"toolRight"	1	"WITproc"	"l"	"a"	2	"WIT"	"no"	104	"l"	"blackFace4.bmp"	1000	"black"	2	"+"	"tool3.bmp"	"tool"	1	"l"	"l"	283	NA	5.6	2.2
1	1	1	3	2	5	"toolRight"	1	"WITproc"	"l"	"a"	2	"WIT"	"no"	105	"a"	"blackFace7.bmp"	1000	"black"	2	"+"	"weapon1.bmp"	"weapon"	1	"a"	"a"	266	NA	5.6	2.2
1	1	1	3	2	5	"toolRight"	1	"WITproc"	"l"	"a"	2	"WIT"	"no"	106	"a"	"whiteFace4.bmp"	800	"white"	2	"+"	"weapon3.bmp"	"weapon"	1	"a"	"a"	322	NA	5.6	2.2
1	1	1	3	2	5	"toolRight"	1	"WITproc"	"l"	"a"	2	"WIT"	"no"	107	"a"	"whiteFace7.bmp"	1200	"white"	1	"+"	"weapon2.bmp"	"weapon"	0	"a"	"l"	321	NA	5.6	2.2
1	1	1	3	2	5	"toolRight"	1	"WITproc"	"l"	"a"	2	"WIT"	"no"	108	"l"	"blackFace8.bmp"	800	"black"	1	"+"	"tool4.bmp"	"tool"	0	"l"	"a"	369	NA	5.6	2.2
1	1	1	3	2	5	"toolRight"	1	"WITproc"	"l"	"a"	2	"WIT"	"no"	109	"l"	"whiteFace8.bmp"	1000	"white"	2	"+"	"tool1.bmp"	"tool"	1	"l"	"l"	424	NA	5.6	2.2
1	1	1	3	2	5	"toolRight"	1	"WITproc"	"l"	"a"	2	"WIT"	"no"	110	"l"	"blackFace2.bmp"	1200	"black"	1	"+"	"tool3.bmp"	"tool"	0	"l"	"a"	255	NA	5.6	2.2
1	1	1	3	2	5	"toolRight"	1	"WITproc"	"l"	"a"	2	"WIT"	"no"	111	"l"	"blackFace5.bmp"	1200	"black"	3	"TOO SLOW"	"tool1.bmp"	"tool"	0	"l"	""	0	NA	5.6	2.2
1	1	1	3	2	5	"toolRight"	1	"WITproc"	"l"	"a"	2	"WIT"	"no"	112	"l"	"whiteFace3.bmp"	800	"white"	1	"+"	"tool4.bmp"	"tool"	0	"l"	"a"	205	NA	5.6	2.2
1	1	1	3	2	5	"toolRight"	1	"WITproc"	"l"	"a"	2	"WIT"	"no"	113	"a"	"whiteFace8.bmp"	1000	"white"	1	"+"	"weapon3.bmp"	"weapon"	0	"a"	"l"	60	NA	5.6	2.2
1	1	1	3	2	5	"toolRight"	1	"WITproc"	"l"	"a"	2	"WIT"	"no"	114	"l"	"whiteFace1.bmp"	1000	"white"	1	"+"	"tool1.bmp"	"tool"	0	"l"	"a"	268	NA	5.6	2.2
1	1	1	3	2	5	"toolRight"	1	"WITproc"	"l"	"a"	2	"WIT"	"no"	115	"a"	"whiteFace8.bmp"	1200	"white"	2	"+"	"weapon4.bmp"	"weapon"	1	"a"	"a"	187	NA	5.6	2.2
1	1	1	3	2	5	"toolRight"	1	"WITproc"	"l"	"a"	2	"WIT"	"no"	116	"l"	"blackFace2.bmp"	800	"black"	2	"+"	"tool1.bmp"	"tool"	1	"l"	"l"	82	NA	5.6	2.2
1	1	1	3	2	5	"toolRight"	1	"WITproc"	"l"	"a"	2	"WIT"	"no"	117	"a"	"blackFace4.bmp"	800	"black"	2	"+"	"weapon4.bmp"	"weapon"	1	"a"	"a"	154	NA	5.6	2.2
1	1	1	3	2	5	"toolRight"	1	"WITproc"	"l"	"a"	2	"WIT"	"no"	118	"a"	"whiteFace6.bmp"	1200	"white"	2	"+"	"weapon2.bmp"	"weapon"	1	"a"	"a"	249	NA	5.6	2.2
1	1	1	3	2	5	"toolRight"	1	"WITproc"	"l"	"a"	2	"WIT"	"no"	119	"a"	"whiteFace6.bmp"	1000	"white"	1	"+"	"weapon3.bmp"	"weapon"	0	"a"	"l"	153	NA	5.6	2.2
1	1	1	3	2	5	"toolRight"	1	"WITproc"	"l"	"a"	2	"WIT"	"no"	120	"a"	"blackFace6.bmp"	1000	"black"	2	"+"	"weapon4.bmp"	"weapon"	1	"a"	"a"	144	NA	5.6	2.2
1	1	1	3	2	5	"toolRight"	1	"WITproc"	"l"	"a"	2	"WIT"	"no"	121	"a"	"blackFace5.bmp"	800	"black"	2	"+"	"weapon2.bmp"	"weapon"	1	"a"	"a"	223	NA	5.6	2.2
1	1	1	3	2	5	"toolRight"	1	"WITproc"	"l"	"a"	2	"WIT"	"no"	122	"l"	"whiteFace8.bmp"	1200	"white"	2	"+"	"tool4.bmp"	"tool"	1	"l"	"l"	151	NA	5.6	2.2
1	1	1	3	2	5	"toolRight"	1	"WITproc"	"l"	"a"	2	"WIT"	"no"	123	"l"	"whiteFace2.bmp"	1200	"white"	1	"+"	"tool3.bmp"	"tool"	0	"l"	"a"	238	NA	5.6	2.2
1	1	1	3	2	5	"toolRight"	1	"WITproc"	"l"	"a"	2	"WIT"	"no"	124	"l"	"blackFace7.bmp"	800	"black"	1	"+"	"tool1.bmp"	"tool"	0	"l"	"a"	325	NA	5.6	2.2
1	1	1	3	2	5	"toolRight"	1	"WITproc"	"l"	"a"	2	"WIT"	"no"	125	"a"	"whiteFace5.bmp"	1000	"white"	3	"TOO SLOW"	"weapon3.bmp"	"weapon"	0	"a"	""	0	NA	5.6	2.2
1	1	1	3	2	5	"toolRight"	1	"WITproc"	"l"	"a"	2	"WIT"	"no"	126	"l"	"whiteFace5.bmp"	800	"white"	1	"+"	"tool3.bmp"	"tool"	0	"l"	"a"	236	NA	5.6	2.2
1	1	1	3	2	5	"toolRight"	1	"WITproc"	"l"	"a"	2	"WIT"	"no"	127	"a"	"blackFace8.bmp"	1000	"black"	2	"+"	"weapon3.bmp"	"weapon"	1	"a"	"a"	396	NA	5.6	2.2
1	1	1	3	2	5	"toolRight"	1	"WITproc"	"l"	"a"	2	"WIT"	"no"	128	"l"	"blackFace1.bmp"	1200	"black"	2	"+"	"tool2.bmp"	"tool"	1	"l"	"l"	259	NA	5.6	2.2
1	1	1	3	2	5	"toolRight"	1	"WITproc"	"l"	"a"	2	"WIT"	"no"	129	"l"	"blackFace7.bmp"	1000	"black"	1	"+"	"tool2.bmp"	"tool"	0	"l"	"a"	122	NA	5.6	2.2
1	1	1	3	2	5	"toolRight"	1	"WITproc"	"l"	"a"	2	"WIT"	"no"	130	"a"	"blackFace4.bmp"	800	"black"	1	"+"	"weapon3.bmp"	"weapon"	0	"a"	"l"	194	NA	5.6	2.2
1	1	1	3	2	5	"toolRight"	1	"WITproc"	"l"	"a"	2	"WIT"	"no"	131	"l"	"whiteFace6.bmp"	1200	"white"	1	"+"	"tool4.bmp"	"tool"	0	"l"	"a"	169	NA	5.6	2.2
1	1	1	3	2	5	"toolRight"	1	"WITproc"	"l"	"a"	2	"WIT"	"no"	132	"l"	"whiteFace6.bmp"	800	"white"	2	"+"	"tool2.bmp"	"tool"	1	"l"	"l"	128	NA	5.6	2.2
1	1	1	3	2	5	"toolRight"	1	"WITproc"	"l"	"a"	2	"WIT"	"no"	133	"a"	"whiteFace8.bmp"	1000	"white"	2	"+"	"weapon2.bmp"	"weapon"	1	"a"	"a"	304	NA	5.6	2.2
1	1	1	3	2	5	"toolRight"	1	"WITproc"	"l"	"a"	2	"WIT"	"no"	134	"l"	"whiteFace6.bmp"	1200	"white"	1	"+"	"tool1.bmp"	"tool"	0	"l"	"a"	255	NA	5.6	2.2
1	1	1	3	2	5	"toolRight"	1	"WITproc"	"l"	"a"	2	"WIT"	"no"	135	"a"	"blackFace1.bmp"	1000	"black"	1	"+"	"weapon3.bmp"	"weapon"	0	"a"	"l"	126	NA	5.6	2.2
1	1	1	3	2	5	"toolRight"	1	"WITproc"	"l"	"a"	2	"WIT"	"no"	136	"l"	"blackFace6.bmp"	800	"black"	1	"+"	"tool4.bmp"	"tool"	0	"l"	"a"	238	NA	5.6	2.2
1	1	1	3	2	5	"toolRight"	1	"WITproc"	"l"	"a"	2	"WIT"	"no"	137	"l"	"whiteFace8.bmp"	1200	"white"	1	"+"	"tool4.bmp"	"tool"	0	"l"	"a"	261	NA	5.6	2.2
1	1	1	3	2	5	"toolRight"	1	"WITproc"	"l"	"a"	2	"WIT"	"no"	138	"l"	"whiteFace7.bmp"	800	"white"	2	"+"	"tool4.bmp"	"tool"	1	"l"	"l"	237	NA	5.6	2.2
1	1	1	3	2	5	"toolRight"	1	"WITproc"	"l"	"a"	2	"WIT"	"no"	139	"l"	"blackFace7.bmp"	1200	"black"	1	"+"	"tool4.bmp"	"tool"	0	"l"	"a"	236	NA	5.6	2.2
1	1	1	3	2	5	"toolRight"	1	"WITproc"	"l"	"a"	2	"WIT"	"no"	140	"l"	"blackFace4.bmp"	1000	"black"	1	"+"	"tool1.bmp"	"tool"	0	"l"	"a"	243	NA	5.6	2.2
1	1	1	3	2	5	"toolRight"	1	"WITproc"	"l"	"a"	2	"WIT"	"no"	141	"a"	"whiteFace6.bmp"	1200	"white"	2	"+"	"weapon1.bmp"	"weapon"	1	"a"	"a"	195	NA	5.6	2.2
1	1	1	3	2	5	"toolRight"	1	"WITproc"	"l"	"a"	2	"WIT"	"no"	142	"a"	"blackFace4.bmp"	1000	"black"	1	"+"	"weapon2.bmp"	"weapon"	0	"a"	"l"	186	NA	5.6	2.2
1	1	1	3	2	5	"toolRight"	1	"WITproc"	"l"	"a"	2	"WIT"	"no"	143	"l"	"whiteFace5.bmp"	800	"white"	1	"+"	"tool4.bmp"	"tool"	0	"l"	"a"	192	NA	5.6	2.2
1	1	1	3	2	5	"toolRight"	1	"WITproc"	"l"	"a"	2	"WIT"	"no"	144	"a"	"blackFace5.bmp"	1000	"black"	2	"+"	"weapon1.bmp"	"weapon"	1	"a"	"a"	296	NA	5.6	2.2
1	1	1	3	2	5	"toolRight"	1	"WITproc"	"l"	"a"	2	"WIT"	"no"	145	"l"	"whiteFace3.bmp"	1200	"white"	2	"+"	"tool1.bmp"	"tool"	1	"l"	"l"	231	NA	5.6	2.2
1	1	1	3	2	5	"toolRight"	1	"WITproc"	"l"	"a"	2	"WIT"	"no"	146	"l"	"blackFace2.bmp"	800	"black"	2	"+"	"tool2.bmp"	"tool"	1	"l"	"l"	198	NA	5.6	2.2
1	1	1	3	2	5	"toolRight"	1	"WITproc"	"l"	"a"	2	"WIT"	"no"	147	"a"	"whiteFace6.bmp"	1200	"white"	2	"+"	"weapon2.bmp"	"weapon"	1	"a"	"a"	278	NA	5.6	2.2
1	1	1	3	2	5	"toolRight"	1	"WITproc"	"l"	"a"	2	"WIT"	"no"	148	"l"	"whiteFace4.bmp"	1000	"white"	2	"+"	"tool4.bmp"	"tool"	1	"l"	"l"	221	NA	5.6	2.2
1	1	1	3	2	5	"toolRight"	1	"WITproc"	"l"	"a"	2	"WIT"	"no"	149	"l"	"blackFace7.bmp"	800	"black"	2	"+"	"tool3.bmp"	"tool"	1	"l"	"l"	157	NA	5.6	2.2
1	1	1	3	2	5	"toolRight"	1	"WITproc"	"l"	"a"	2	"WIT"	"no"	150	"a"	"whiteFace1.bmp"	1000	"white"	2	"+"	"weapon4.bmp"	"weapon"	1	"a"	"a"	236	NA	5.6	2.2
1	1	1	3	2	5	"toolRight"	1	"WITproc"	"l"	"a"	2	"WIT"	"no"	151	"l"	"blackFace2.bmp"	800	"black"	1	"+"	"tool4.bmp"	"tool"	0	"l"	"a"	267	NA	5.6	2.2
1	1	1	3	2	5	"toolRight"	1	"WITproc"	"l"	"a"	2	"WIT"	"no"	152	"a"	"blackFace7.bmp"	1200	"black"	2	"+"	"weapon2.bmp"	"weapon"	1	"a"	"a"	283	NA	5.6	2.2
1	1	1	3	2	5	"toolRight"	1	"WITproc"	"l"	"a"	2	"WIT"	"no"	153	"a"	"whiteFace4.bmp"	1000	"white"	1	"+"	"weapon2.bmp"	"weapon"	0	"a"	"l"	146	NA	5.6	2.2
1	1	1	3	2	5	"toolRight"	1	"WITproc"	"l"	"a"	2	"WIT"	"no"	154	"a"	"blackFace8.bmp"	800	"black"	2	"+"	"weapon2.bmp"	"weapon"	1	"a"	"a"	353	NA	5.6	2.2
1	1	1	3	2	5	"toolRight"	1	"WITproc"	"l"	"a"	2	"WIT"	"no"	155	"a"	"whiteFace2.bmp"	1200	"white"	1	"+"	"weapon1.bmp"	"weapon"	0	"a"	"l"	233	NA	5.6	2.2
1	1	1	3	2	5	"toolRight"	1	"WITproc"	"l"	"a"	2	"WIT"	"no"	156	"a"	"whiteFace4.bmp"	1000	"white"	2	"+"	"weapon4.bmp"	"weapon"	1	"a"	"a"	440	NA	5.6	2.2
1	1	1	3	2	5	"toolRight"	1	"WITproc"	"l"	"a"	2	"WIT"	"no"	157	"l"	"whiteFace5.bmp"	1200	"white"	2	"+"	"tool3.bmp"	"tool"	1	"l"	"l"	399	NA	5.6	2.2
1	1	1	3	2	5	"toolRight"	1	"WITproc"	"l"	"a"	2	"WIT"	"no"	158	"l"	"blackFace1.bmp"	800	"black"	1	"+"	"tool4.bmp"	"tool"	0	"l"	"a"	295	NA	5.6	2.2
1	1	1	3	2	5	"toolRight"	1	"WITproc"	"l"	"a"	2	"WIT"	"no"	159	"a"	"whiteFace5.bmp"	1000	"white"	1	"+"	"weapon3.bmp"	"weapon"	0	"a"	"l"	374	NA	5.6	2.2
1	1	1	3	2	5	"toolRight"	1	"WITproc"	"l"	"a"	2	"WIT"	"no"	160	"l"	"blackFace3.bmp"	800	"black"	2	"+"	"tool3.bmp"	"tool"	1	"l"	"l"	254	NA	5.6	2.2
1	1	1	3	2	5	"toolRight"	1	"WITproc"	"l"	"a"	2	"WIT"	"no"	161	"l"	"whiteFace1.bmp"	1200	"white"	2	"+"	"tool1.bmp"	"tool"	1	"l"	"l"	341	NA	5.6	2.2
1	1	1	3	2	5	"toolRight"	1	"WITproc"	"l"	"a"	2	"WIT"	"no"	162	"l"	"whiteFace2.bmp"	1000	"white"	2	"+"	"tool3.bmp"	"tool"	1	"l"	"l"	220	NA	5.6	2.2
1	1	1	3	2	5	"toolRight"	1	"WITproc"	"l"	"a"	2	"WIT"	"no"	163	"a"	"blackFace5.bmp"	800	"black"	1	"+"	"weapon4.bmp"	"weapon"	0	"a"	"l"	284	NA	5.6	2.2
1	1	1	3	2	5	"toolRight"	1	"WITproc"	"l"	"a"	2	"WIT"	"no"	164	"l"	"whiteFace1.bmp"	1200	"white"	2	"+"	"tool2.bmp"	"tool"	1	"l"	"l"	459	NA	5.6	2.2
1	1	1	3	2	5	"toolRight"	1	"WITproc"	"l"	"a"	2	"WIT"	"no"	165	"a"	"whiteFace3.bmp"	1000	"white"	2	"+"	"weapon1.bmp"	"weapon"	1	"a"	"a"	250	NA	5.6	2.2
1	1	1	3	2	5	"toolRight"	1	"WITproc"	"l"	"a"	2	"WIT"	"no"	166	"a"	"blackFace6.bmp"	800	"black"	2	"+"	"weapon1.bmp"	"weapon"	1	"a"	"a"	490	NA	5.6	2.2
1	1	1	3	2	5	"toolRight"	1	"WITproc"	"l"	"a"	2	"WIT"	"no"	167	"a"	"blackFace3.bmp"	1200	"black"	2	"+"	"weapon3.bmp"	"weapon"	1	"a"	"a"	305	NA	5.6	2.2
1	1	1	3	2	5	"toolRight"	1	"WITproc"	"l"	"a"	2	"WIT"	"no"	168	"a"	"whiteFace1.bmp"	1200	"white"	1	"+"	"weapon1.bmp"	"weapon"	0	"a"	"l"	184	NA	5.6	2.2
1	1	1	3	2	5	"toolRight"	1	"WITproc"	"l"	"a"	2	"WIT"	"no"	169	"a"	"whiteFace7.bmp"	1000	"white"	2	"+"	"weapon2.bmp"	"weapon"	1	"a"	"a"	352	NA	5.6	2.2
1	1	1	3	2	5	"toolRight"	1	"WITproc"	"l"	"a"	2	"WIT"	"no"	170	"l"	"blackFace5.bmp"	800	"black"	1	"+"	"tool1.bmp"	"tool"	0	"l"	"a"	255	NA	5.6	2.2
1	1	1	3	2	5	"toolRight"	1	"WITproc"	"l"	"a"	2	"WIT"	"no"	171	"l"	"whiteFace2.bmp"	1200	"white"	2	"+"	"tool2.bmp"	"tool"	1	"l"	"l"	303	NA	5.6	2.2
1	1	1	3	2	5	"toolRight"	1	"WITproc"	"l"	"a"	2	"WIT"	"no"	172	"a"	"whiteFace8.bmp"	1000	"white"	1	"+"	"weapon1.bmp"	"weapon"	0	"a"	"l"	245	NA	5.6	2.2
1	1	1	3	2	5	"toolRight"	1	"WITproc"	"l"	"a"	2	"WIT"	"no"	173	"a"	"blackFace4.bmp"	800	"black"	1	"+"	"weapon4.bmp"	"weapon"	0	"a"	"l"	157	NA	5.6	2.2
1	1	1	3	2	5	"toolRight"	1	"WITproc"	"l"	"a"	2	"WIT"	"no"	174	"l"	"whiteFace1.bmp"	800	"white"	1	"+"	"tool4.bmp"	"tool"	0	"l"	"a"	308	NA	5.6	2.2
1	1	1	3	2	5	"toolRight"	1	"WITproc"	"l"	"a"	2	"WIT"	"no"	175	"l"	"blackFace6.bmp"	1000	"black"	1	"+"	"tool1.bmp"	"tool"	0	"l"	"a"	339	NA	5.6	2.2
1	1	1	3	2	5	"toolRight"	1	"WITproc"	"l"	"a"	2	"WIT"	"no"	176	"a"	"blackFace5.bmp"	1200	"black"	2	"+"	"weapon2.bmp"	"weapon"	1	"a"	"a"	354	NA	5.6	2.2
1	1	1	3	2	5	"toolRight"	1	"WITproc"	"l"	"a"	2	"WIT"	"no"	177	"l"	"whiteFace3.bmp"	800	"white"	1	"+"	"tool4.bmp"	"tool"	0	"l"	"a"	346	NA	5.6	2.2
1	1	1	3	2	5	"toolRight"	1	"WITproc"	"l"	"a"	2	"WIT"	"no"	178	"a"	"whiteFace7.bmp"	1000	"white"	2	"+"	"weapon4.bmp"	"weapon"	1	"a"	"a"	297	NA	5.6	2.2
1	1	1	3	2	5	"toolRight"	1	"WITproc"	"l"	"a"	2	"WIT"	"no"	179	"a"	"blackFace3.bmp"	1200	"black"	2	"+"	"weapon1.bmp"	"weapon"	1	"a"	"a"	184	NA	5.6	2.2
1	1	1	3	2	5	"toolRight"	1	"WITproc"	"l"	"a"	2	"WIT"	"no"	180	"a"	"blackFace5.bmp"	800	"black"	1	"+"	"weapon3.bmp"	"weapon"	0	"a"	"l"	208	NA	5.6	2.2
1	1	1	3	2	5	"toolRight"	1	"WITproc"	"l"	"a"	2	"WIT"	"no"	181	"l"	"blackFace4.bmp"	1200	"black"	1	"+"	"tool2.bmp"	"tool"	0	"l"	"a"	143	NA	5.6	2.2
1	1	1	3	2	5	"toolRight"	1	"WITproc"	"l"	"a"	2	"WIT"	"no"	182	"a"	"whiteFace7.bmp"	1000	"white"	2	"+"	"weapon3.bmp"	"weapon"	1	"a"	"a"	311	NA	5.6	2.2
1	1	1	3	2	5	"toolRight"	1	"WITproc"	"l"	"a"	2	"WIT"	"no"	183	"l"	"blackFace8.bmp"	1000	"black"	1	"+"	"tool3.bmp"	"tool"	0	"l"	"a"	334	NA	5.6	2.2
1	1	1	3	2	5	"toolRight"	1	"WITproc"	"l"	"a"	2	"WIT"	"no"	184	"l"	"blackFace1.bmp"	800	"black"	1	"+"	"tool1.bmp"	"tool"	0	"l"	"a"	349	NA	5.6	2.2
1	1	1	3	2	5	"toolRight"	1	"WITproc"	"l"	"a"	2	"WIT"	"no"	185	"a"	"blackFace7.bmp"	1200	"black"	2	"+"	"weapon4.bmp"	"weapon"	1	"a"	"a"	445	NA	5.6	2.2
1	1	1	3	2	5	"toolRight"	1	"WITproc"	"l"	"a"	2	"WIT"	"no"	186	"l"	"blackFace6.bmp"	1000	"black"	3	"TOO SLOW"	"tool2.bmp"	"tool"	0	"l"	""	0	NA	5.6	2.2
1	1	1	3	2	5	"toolRight"	1	"WITproc"	"l"	"a"	2	"WIT"	"no"	187	"a"	"whiteFace2.bmp"	1200	"white"	2	"+"	"weapon3.bmp"	"weapon"	1	"a"	"a"	331	NA	5.6	2.2
1	1	1	3	2	5	"toolRight"	1	"WITproc"	"l"	"a"	2	"WIT"	"no"	188	"l"	"blackFace1.bmp"	800	"black"	2	"+"	"tool3.bmp"	"tool"	1	"l"	"l"	179	NA	5.6	2.2
1	1	1	3	2	5	"toolRight"	1	"WITproc"	"l"	"a"	2	"WIT"	"no"	189	"a"	"blackFace7.bmp"	1200	"black"	1	"+"	"weapon1.bmp"	"weapon"	0	"a"	"l"	410	NA	5.6	2.2
1	1	1	3	2	5	"toolRight"	1	"WITproc"	"l"	"a"	2	"WIT"	"no"	190	"a"	"blackFace2.bmp"	800	"black"	1	"+"	"weapon2.bmp"	"weapon"	0	"a"	"l"	498	NA	5.6	2.2
1	1	1	3	2	5	"toolRight"	1	"WITproc"	"l"	"a"	2	"WIT"	"no"	191	"a"	"whiteFace3.bmp"	1000	"white"	2	"+"	"weapon2.bmp"	"weapon"	1	"a"	"a"	209	NA	5.6	2.2
1	1	1	3	2	5	"toolRight"	1	"WITproc"	"l"	"a"	2	"WIT"	"no"	192	"l"	"whiteFace2.bmp"	800	"white"	1	"+"	"tool4.bmp"	"tool"	0	"l"	"a"	280	NA	5.6	2.2
10	1	1	2	2	5	"toolRight"	2	"WITproc"	"l"	"a"	2	"WIT"	"no"	1	"l"	"blackFace4.bmp"	1000	"black"	3	"TOO SLOW"	"tool1.bmp"	"tool"	0	"l"	""	0	NA	9	5.8
10	1	1	2	2	5	"toolRight"	2	"WITproc"	"l"	"a"	2	"WIT"	"no"	2	"a"	"whiteFace7.bmp"	800	"white"	2	"+"	"weapon2.bmp"	"weapon"	1	"a"	"a"	349	NA	9	5.8
10	1	1	2	2	5	"toolRight"	2	"WITproc"	"l"	"a"	2	"WIT"	"no"	3	"a"	"whiteFace5.bmp"	1200	"white"	1	"+"	"weapon4.bmp"	"weapon"	0	"a"	"l"	396	NA	9	5.8
10	1	1	2	2	5	"toolRight"	2	"WITproc"	"l"	"a"	2	"WIT"	"no"	4	"a"	"blackFace8.bmp"	1000	"black"	2	"+"	"weapon4.bmp"	"weapon"	1	"a"	"a"	428	NA	9	5.8
10	1	1	2	2	5	"toolRight"	2	"WITproc"	"l"	"a"	2	"WIT"	"no"	5	"a"	"blackFace8.bmp"	1000	"black"	2	"+"	"weapon3.bmp"	"weapon"	1	"a"	"a"	379	NA	9	5.8
10	1	1	2	2	5	"toolRight"	2	"WITproc"	"l"	"a"	2	"WIT"	"no"	6	"a"	"blackFace6.bmp"	800	"black"	2	"+"	"weapon4.bmp"	"weapon"	1	"a"	"a"	298	NA	9	5.8
10	1	1	2	2	5	"toolRight"	2	"WITproc"	"l"	"a"	2	"WIT"	"no"	7	"a"	"whiteFace2.bmp"	1200	"white"	2	"+"	"weapon1.bmp"	"weapon"	1	"a"	"a"	346	NA	9	5.8
10	1	1	2	2	5	"toolRight"	2	"WITproc"	"l"	"a"	2	"WIT"	"no"	8	"a"	"blackFace2.bmp"	800	"black"	2	"+"	"weapon3.bmp"	"weapon"	1	"a"	"a"	281	NA	9	5.8
10	1	1	2	2	5	"toolRight"	2	"WITproc"	"l"	"a"	2	"WIT"	"no"	9	"a"	"whiteFace8.bmp"	1200	"white"	1	"+"	"weapon2.bmp"	"weapon"	0	"a"	"l"	273	NA	9	5.8
10	1	1	2	2	5	"toolRight"	2	"WITproc"	"l"	"a"	2	"WIT"	"no"	10	"l"	"blackFace3.bmp"	1000	"black"	1	"+"	"tool2.bmp"	"tool"	0	"l"	"a"	288	NA	9	5.8
10	1	1	2	2	5	"toolRight"	2	"WITproc"	"l"	"a"	2	"WIT"	"no"	11	"l"	"whiteFace4.bmp"	1000	"white"	1	"+"	"tool1.bmp"	"tool"	0	"l"	"a"	447	NA	9	5.8
10	1	1	2	2	5	"toolRight"	2	"WITproc"	"l"	"a"	2	"WIT"	"no"	12	"l"	"whiteFace6.bmp"	1200	"white"	3	"TOO SLOW"	"tool1.bmp"	"tool"	0	"l"	""	0	NA	9	5.8
10	1	1	2	2	5	"toolRight"	2	"WITproc"	"l"	"a"	2	"WIT"	"no"	13	"l"	"blackFace4.bmp"	800	"black"	2	"+"	"tool4.bmp"	"tool"	1	"l"	"l"	421	NA	9	5.8
10	1	1	2	2	5	"toolRight"	2	"WITproc"	"l"	"a"	2	"WIT"	"no"	14	"a"	"whiteFace3.bmp"	800	"white"	1	"+"	"weapon1.bmp"	"weapon"	0	"a"	"l"	284	NA	9	5.8
10	1	1	2	2	5	"toolRight"	2	"WITproc"	"l"	"a"	2	"WIT"	"no"	15	"a"	"blackFace1.bmp"	1200	"black"	2	"+"	"weapon3.bmp"	"weapon"	1	"a"	"a"	492	NA	9	5.8
10	1	1	2	2	5	"toolRight"	2	"WITproc"	"l"	"a"	2	"WIT"	"no"	16	"l"	"blackFace3.bmp"	1000	"black"	2	"+"	"tool1.bmp"	"tool"	1	"l"	"l"	499	NA	9	5.8
10	1	1	2	2	5	"toolRight"	2	"WITproc"	"l"	"a"	2	"WIT"	"no"	17	"a"	"blackFace6.bmp"	1200	"black"	2	"+"	"weapon1.bmp"	"weapon"	1	"a"	"a"	442	NA	9	5.8
10	1	1	2	2	5	"toolRight"	2	"WITproc"	"l"	"a"	2	"WIT"	"no"	18	"a"	"blackFace5.bmp"	1000	"black"	1	"+"	"weapon2.bmp"	"weapon"	0	"a"	"l"	354	NA	9	5.8
10	1	1	2	2	5	"toolRight"	2	"WITproc"	"l"	"a"	2	"WIT"	"no"	19	"a"	"whiteFace4.bmp"	800	"white"	2	"+"	"weapon2.bmp"	"weapon"	1	"a"	"a"	409	NA	9	5.8
10	1	1	2	2	5	"toolRight"	2	"WITproc"	"l"	"a"	2	"WIT"	"no"	20	"l"	"whiteFace1.bmp"	1200	"white"	2	"+"	"tool2.bmp"	"tool"	1	"l"	"l"	441	NA	9	5.8
10	1	1	2	2	5	"toolRight"	2	"WITproc"	"l"	"a"	2	"WIT"	"no"	21	"l"	"blackFace6.bmp"	1000	"black"	2	"+"	"tool2.bmp"	"tool"	1	"l"	"l"	408	NA	9	5.8
10	1	1	2	2	5	"toolRight"	2	"WITproc"	"l"	"a"	2	"WIT"	"no"	22	"a"	"blackFace7.bmp"	800	"black"	1	"+"	"weapon2.bmp"	"weapon"	0	"a"	"l"	399	NA	9	5.8
10	1	1	2	2	5	"toolRight"	2	"WITproc"	"l"	"a"	2	"WIT"	"no"	23	"l"	"whiteFace3.bmp"	800	"white"	3	"TOO SLOW"	"tool1.bmp"	"tool"	0	"l"	""	0	NA	9	5.8
10	1	1	2	2	5	"toolRight"	2	"WITproc"	"l"	"a"	2	"WIT"	"no"	24	"l"	"whiteFace7.bmp"	1000	"white"	1	"+"	"tool1.bmp"	"tool"	0	"l"	"a"	462	NA	9	5.8
10	1	1	2	2	5	"toolRight"	2	"WITproc"	"l"	"a"	2	"WIT"	"no"	25	"a"	"whiteFace8.bmp"	1200	"white"	3	"TOO SLOW"	"weapon3.bmp"	"weapon"	0	"a"	""	0	NA	9	5.8
10	1	1	2	2	5	"toolRight"	2	"WITproc"	"l"	"a"	2	"WIT"	"no"	26	"a"	"blackFace8.bmp"	800	"black"	1	"+"	"weapon2.bmp"	"weapon"	0	"a"	"l"	348	NA	9	5.8
10	1	1	2	2	5	"toolRight"	2	"WITproc"	"l"	"a"	2	"WIT"	"no"	27	"l"	"blackFace3.bmp"	1000	"black"	1	"+"	"tool3.bmp"	"tool"	0	"l"	"a"	419	NA	9	5.8
10	1	1	2	2	5	"toolRight"	2	"WITproc"	"l"	"a"	2	"WIT"	"no"	28	"l"	"blackFace2.bmp"	1200	"black"	2	"+"	"tool2.bmp"	"tool"	1	"l"	"l"	419	NA	9	5.8
10	1	1	2	2	5	"toolRight"	2	"WITproc"	"l"	"a"	2	"WIT"	"no"	29	"l"	"whiteFace7.bmp"	1000	"white"	2	"+"	"tool4.bmp"	"tool"	1	"l"	"l"	402	NA	9	5.8
10	1	1	2	2	5	"toolRight"	2	"WITproc"	"l"	"a"	2	"WIT"	"no"	30	"a"	"whiteFace7.bmp"	1200	"white"	2	"+"	"weapon3.bmp"	"weapon"	1	"a"	"a"	402	NA	9	5.8
10	1	1	2	2	5	"toolRight"	2	"WITproc"	"l"	"a"	2	"WIT"	"no"	31	"l"	"whiteFace1.bmp"	800	"white"	1	"+"	"tool4.bmp"	"tool"	0	"l"	"a"	417	NA	9	5.8
10	1	1	2	2	5	"toolRight"	2	"WITproc"	"l"	"a"	2	"WIT"	"no"	32	"l"	"blackFace5.bmp"	1000	"black"	2	"+"	"tool3.bmp"	"tool"	1	"l"	"l"	400	NA	9	5.8
10	1	1	2	2	5	"toolRight"	2	"WITproc"	"l"	"a"	2	"WIT"	"no"	33	"l"	"whiteFace8.bmp"	800	"white"	2	"+"	"tool4.bmp"	"tool"	1	"l"	"l"	392	NA	9	5.8
10	1	1	2	2	5	"toolRight"	2	"WITproc"	"l"	"a"	2	"WIT"	"no"	34	"l"	"blackFace6.bmp"	1200	"black"	2	"+"	"tool3.bmp"	"tool"	1	"l"	"l"	351	NA	9	5.8
10	1	1	2	2	5	"toolRight"	2	"WITproc"	"l"	"a"	2	"WIT"	"no"	35	"a"	"blackFace7.bmp"	1200	"black"	2	"+"	"weapon3.bmp"	"weapon"	1	"a"	"a"	334	NA	9	5.8
10	1	1	2	2	5	"toolRight"	2	"WITproc"	"l"	"a"	2	"WIT"	"no"	36	"a"	"whiteFace5.bmp"	1000	"white"	2	"+"	"weapon2.bmp"	"weapon"	1	"a"	"a"	454	NA	9	5.8
10	1	1	2	2	5	"toolRight"	2	"WITproc"	"l"	"a"	2	"WIT"	"no"	37	"a"	"whiteFace5.bmp"	800	"white"	2	"+"	"weapon3.bmp"	"weapon"	1	"a"	"a"	453	NA	9	5.8
10	1	1	2	2	5	"toolRight"	2	"WITproc"	"l"	"a"	2	"WIT"	"no"	38	"l"	"whiteFace2.bmp"	1000	"white"	2	"+"	"tool4.bmp"	"tool"	1	"l"	"l"	444	NA	9	5.8
10	1	1	2	2	5	"toolRight"	2	"WITproc"	"l"	"a"	2	"WIT"	"no"	39	"l"	"blackFace5.bmp"	1200	"black"	2	"+"	"tool1.bmp"	"tool"	1	"l"	"l"	492	NA	9	5.8
10	1	1	2	2	5	"toolRight"	2	"WITproc"	"l"	"a"	2	"WIT"	"no"	40	"a"	"whiteFace3.bmp"	800	"white"	2	"+"	"weapon2.bmp"	"weapon"	1	"a"	"a"	363	NA	9	5.8
10	1	1	2	2	5	"toolRight"	2	"WITproc"	"l"	"a"	2	"WIT"	"no"	41	"l"	"blackFace7.bmp"	800	"black"	2	"+"	"tool2.bmp"	"tool"	1	"l"	"l"	259	NA	9	5.8
10	1	1	2	2	5	"toolRight"	2	"WITproc"	"l"	"a"	2	"WIT"	"no"	42	"a"	"blackFace3.bmp"	1200	"black"	2	"+"	"weapon1.bmp"	"weapon"	1	"a"	"a"	474	NA	9	5.8
10	1	1	2	2	5	"toolRight"	2	"WITproc"	"l"	"a"	2	"WIT"	"no"	43	"a"	"blackFace3.bmp"	1000	"black"	3	"TOO SLOW"	"weapon4.bmp"	"weapon"	0	"a"	""	0	NA	9	5.8
10	1	1	2	2	5	"toolRight"	2	"WITproc"	"l"	"a"	2	"WIT"	"no"	44	"l"	"whiteFace4.bmp"	1000	"white"	2	"+"	"tool3.bmp"	"tool"	1	"l"	"l"	399	NA	9	5.8
10	1	1	2	2	5	"toolRight"	2	"WITproc"	"l"	"a"	2	"WIT"	"no"	45	"l"	"blackFace8.bmp"	800	"black"	1	"+"	"tool4.bmp"	"tool"	0	"l"	"a"	286	NA	9	5.8
10	1	1	2	2	5	"toolRight"	2	"WITproc"	"l"	"a"	2	"WIT"	"no"	46	"l"	"whiteFace7.bmp"	1200	"white"	2	"+"	"tool3.bmp"	"tool"	1	"l"	"l"	342	NA	9	5.8
10	1	1	2	2	5	"toolRight"	2	"WITproc"	"l"	"a"	2	"WIT"	"no"	47	"a"	"whiteFace6.bmp"	1200	"white"	1	"+"	"weapon4.bmp"	"weapon"	0	"a"	"l"	301	NA	9	5.8
10	1	1	2	2	5	"toolRight"	2	"WITproc"	"l"	"a"	2	"WIT"	"no"	48	"l"	"blackFace6.bmp"	800	"black"	2	"+"	"tool1.bmp"	"tool"	1	"l"	"l"	428	NA	9	5.8
10	1	1	2	2	5	"toolRight"	2	"WITproc"	"l"	"a"	2	"WIT"	"no"	49	"l"	"whiteFace4.bmp"	1000	"white"	1	"+"	"tool2.bmp"	"tool"	0	"l"	"a"	284	NA	9	5.8
10	1	1	2	2	5	"toolRight"	2	"WITproc"	"l"	"a"	2	"WIT"	"no"	50	"l"	"blackFace7.bmp"	1200	"black"	2	"+"	"tool3.bmp"	"tool"	1	"l"	"l"	363	NA	9	5.8
10	1	1	2	2	5	"toolRight"	2	"WITproc"	"l"	"a"	2	"WIT"	"no"	51	"l"	"whiteFace5.bmp"	800	"white"	2	"+"	"tool1.bmp"	"tool"	1	"l"	"l"	419	NA	9	5.8
10	1	1	2	2	5	"toolRight"	2	"WITproc"	"l"	"a"	2	"WIT"	"no"	52	"a"	"whiteFace1.bmp"	1000	"white"	2	"+"	"weapon3.bmp"	"weapon"	1	"a"	"a"	402	NA	9	5.8
10	1	1	2	2	5	"toolRight"	2	"WITproc"	"l"	"a"	2	"WIT"	"no"	53	"l"	"blackFace1.bmp"	1000	"black"	2	"+"	"tool3.bmp"	"tool"	1	"l"	"l"	329	NA	9	5.8
10	1	1	2	2	5	"toolRight"	2	"WITproc"	"l"	"a"	2	"WIT"	"no"	54	"a"	"whiteFace6.bmp"	1200	"white"	3	"TOO SLOW"	"weapon1.bmp"	"weapon"	0	"a"	""	0	NA	9	5.8
10	1	1	2	2	5	"toolRight"	2	"WITproc"	"l"	"a"	2	"WIT"	"no"	55	"a"	"blackFace3.bmp"	800	"black"	1	"+"	"weapon2.bmp"	"weapon"	0	"a"	"l"	344	NA	9	5.8
10	1	1	2	2	5	"toolRight"	2	"WITproc"	"l"	"a"	2	"WIT"	"no"	56	"a"	"whiteFace7.bmp"	800	"white"	2	"+"	"weapon4.bmp"	"weapon"	1	"a"	"a"	303	NA	9	5.8
10	1	1	2	2	5	"toolRight"	2	"WITproc"	"l"	"a"	2	"WIT"	"no"	57	"l"	"whiteFace8.bmp"	1200	"white"	1	"+"	"tool1.bmp"	"tool"	0	"l"	"a"	319	NA	9	5.8
10	1	1	2	2	5	"toolRight"	2	"WITproc"	"l"	"a"	2	"WIT"	"no"	58	"a"	"blackFace4.bmp"	1000	"black"	2	"+"	"weapon4.bmp"	"weapon"	1	"a"	"a"	374	NA	9	5.8
10	1	1	2	2	5	"toolRight"	2	"WITproc"	"l"	"a"	2	"WIT"	"no"	59	"l"	"whiteFace2.bmp"	800	"white"	2	"+"	"tool3.bmp"	"tool"	1	"l"	"l"	349	NA	9	5.8
10	1	1	2	2	5	"toolRight"	2	"WITproc"	"l"	"a"	2	"WIT"	"no"	60	"a"	"blackFace6.bmp"	1200	"black"	2	"+"	"weapon3.bmp"	"weapon"	1	"a"	"a"	261	NA	9	5.8
10	1	1	2	2	5	"toolRight"	2	"WITproc"	"l"	"a"	2	"WIT"	"no"	61	"l"	"blackFace1.bmp"	1000	"black"	2	"+"	"tool4.bmp"	"tool"	1	"l"	"l"	388	NA	9	5.8
10	1	1	2	2	5	"toolRight"	2	"WITproc"	"l"	"a"	2	"WIT"	"no"	62	"a"	"blackFace6.bmp"	1200	"black"	2	"+"	"weapon2.bmp"	"weapon"	1	"a"	"a"	332	NA	9	5.8
10	1	1	2	2	5	"toolRight"	2	"WITproc"	"l"	"a"	2	"WIT"	"no"	63	"a"	"whiteFace6.bmp"	800	"white"	1	"+"	"weapon3.bmp"	"weapon"	0	"a"	"l"	243	NA	9	5.8
10	1	1	2	2	5	"toolRight"	2	"WITproc"	"l"	"a"	2	"WIT"	"no"	64	"l"	"whiteFace5.bmp"	1000	"white"	2	"+"	"tool4.bmp"	"tool"	1	"l"	"l"	266	NA	9	5.8
10	1	1	2	2	5	"toolRight"	2	"WITproc"	"l"	"a"	2	"WIT"	"no"	65	"a"	"whiteFace3.bmp"	800	"white"	2	"+"	"weapon3.bmp"	"weapon"	1	"a"	"a"	338	NA	9	5.8
10	1	1	2	2	5	"toolRight"	2	"WITproc"	"l"	"a"	2	"WIT"	"no"	66	"l"	"blackFace4.bmp"	1000	"black"	2	"+"	"tool3.bmp"	"tool"	1	"l"	"l"	401	NA	9	5.8
10	1	1	2	2	5	"toolRight"	2	"WITproc"	"l"	"a"	2	"WIT"	"no"	67	"l"	"whiteFace6.bmp"	1200	"white"	1	"+"	"tool3.bmp"	"tool"	0	"l"	"a"	320	NA	9	5.8
10	1	1	2	2	5	"toolRight"	2	"WITproc"	"l"	"a"	2	"WIT"	"no"	68	"l"	"whiteFace7.bmp"	1000	"white"	2	"+"	"tool2.bmp"	"tool"	1	"l"	"l"	392	NA	9	5.8
10	1	1	2	2	5	"toolRight"	2	"WITproc"	"l"	"a"	2	"WIT"	"no"	69	"a"	"whiteFace3.bmp"	1200	"white"	1	"+"	"weapon4.bmp"	"weapon"	0	"a"	"l"	287	NA	9	5.8
10	1	1	2	2	5	"toolRight"	2	"WITproc"	"l"	"a"	2	"WIT"	"no"	70	"a"	"blackFace4.bmp"	800	"black"	2	"+"	"weapon2.bmp"	"weapon"	1	"a"	"a"	494	NA	9	5.8
10	1	1	2	2	5	"toolRight"	2	"WITproc"	"l"	"a"	2	"WIT"	"no"	71	"a"	"whiteFace4.bmp"	800	"white"	1	"+"	"weapon4.bmp"	"weapon"	0	"a"	"l"	238	NA	9	5.8
10	1	1	2	2	5	"toolRight"	2	"WITproc"	"l"	"a"	2	"WIT"	"no"	72	"l"	"blackFace2.bmp"	1200	"black"	1	"+"	"tool3.bmp"	"tool"	0	"l"	"a"	301	NA	9	5.8
10	1	1	2	2	5	"toolRight"	2	"WITproc"	"l"	"a"	2	"WIT"	"no"	73	"a"	"whiteFace1.bmp"	1000	"white"	1	"+"	"weapon2.bmp"	"weapon"	0	"a"	"l"	317	NA	9	5.8
10	1	1	2	2	5	"toolRight"	2	"WITproc"	"l"	"a"	2	"WIT"	"no"	74	"l"	"blackFace7.bmp"	800	"black"	2	"+"	"tool1.bmp"	"tool"	1	"l"	"l"	492	NA	9	5.8
10	1	1	2	2	5	"toolRight"	2	"WITproc"	"l"	"a"	2	"WIT"	"no"	75	"a"	"blackFace1.bmp"	1000	"black"	2	"+"	"weapon1.bmp"	"weapon"	1	"a"	"a"	299	NA	9	5.8
10	1	1	2	2	5	"toolRight"	2	"WITproc"	"l"	"a"	2	"WIT"	"no"	76	"a"	"whiteFace8.bmp"	1200	"white"	2	"+"	"weapon1.bmp"	"weapon"	1	"a"	"a"	338	NA	9	5.8
10	1	1	2	2	5	"toolRight"	2	"WITproc"	"l"	"a"	2	"WIT"	"no"	77	"a"	"blackFace7.bmp"	1000	"black"	1	"+"	"weapon4.bmp"	"weapon"	0	"a"	"l"	289	NA	9	5.8
10	1	1	2	2	5	"toolRight"	2	"WITproc"	"l"	"a"	2	"WIT"	"no"	78	"a"	"whiteFace2.bmp"	800	"white"	2	"+"	"weapon4.bmp"	"weapon"	1	"a"	"a"	376	NA	9	5.8
10	1	1	2	2	5	"toolRight"	2	"WITproc"	"l"	"a"	2	"WIT"	"no"	79	"a"	"whiteFace6.bmp"	1200	"white"	2	"+"	"weapon2.bmp"	"weapon"	1	"a"	"a"	344	NA	9	5.8
10	1	1	2	2	5	"toolRight"	2	"WITproc"	"l"	"a"	2	"WIT"	"no"	80	"a"	"blackFace4.bmp"	1000	"black"	2	"+"	"weapon1.bmp"	"weapon"	1	"a"	"a"	415	NA	9	5.8
10	1	1	2	2	5	"toolRight"	2	"WITproc"	"l"	"a"	2	"WIT"	"no"	81	"l"	"blackFace4.bmp"	1200	"black"	3	"TOO SLOW"	"tool2.bmp"	"tool"	0	"l"	""	0	NA	9	5.8
10	1	1	2	2	5	"toolRight"	2	"WITproc"	"l"	"a"	2	"WIT"	"no"	82	"a"	"blackFace2.bmp"	800	"black"	2	"+"	"weapon4.bmp"	"weapon"	1	"a"	"a"	398	NA	9	5.8
10	1	1	2	2	5	"toolRight"	2	"WITproc"	"l"	"a"	2	"WIT"	"no"	83	"l"	"blackFace8.bmp"	1000	"black"	2	"+"	"tool1.bmp"	"tool"	1	"l"	"l"	373	NA	9	5.8
10	1	1	2	2	5	"toolRight"	2	"WITproc"	"l"	"a"	2	"WIT"	"no"	84	"a"	"whiteFace8.bmp"	1200	"white"	2	"+"	"weapon4.bmp"	"weapon"	1	"a"	"a"	429	NA	9	5.8
10	1	1	2	2	5	"toolRight"	2	"WITproc"	"l"	"a"	2	"WIT"	"no"	85	"l"	"blackFace7.bmp"	800	"black"	2	"+"	"tool4.bmp"	"tool"	1	"l"	"l"	476	NA	9	5.8
10	1	1	2	2	5	"toolRight"	2	"WITproc"	"l"	"a"	2	"WIT"	"no"	86	"l"	"blackFace1.bmp"	800	"black"	3	"TOO SLOW"	"tool1.bmp"	"tool"	0	"l"	""	0	NA	9	5.8
10	1	1	2	2	5	"toolRight"	2	"WITproc"	"l"	"a"	2	"WIT"	"no"	87	"a"	"whiteFace2.bmp"	1200	"white"	2	"+"	"weapon3.bmp"	"weapon"	1	"a"	"a"	338	NA	9	5.8
10	1	1	2	2	5	"toolRight"	2	"WITproc"	"l"	"a"	2	"WIT"	"no"	88	"l"	"whiteFace3.bmp"	1000	"white"	2	"+"	"tool4.bmp"	"tool"	1	"l"	"l"	377	NA	9	5.8
10	1	1	2	2	5	"toolRight"	2	"WITproc"	"l"	"a"	2	"WIT"	"no"	89	"l"	"whiteFace6.bmp"	800	"white"	2	"+"	"tool2.bmp"	"tool"	1	"l"	"l"	473	NA	9	5.8
10	1	1	2	2	5	"toolRight"	2	"WITproc"	"l"	"a"	2	"WIT"	"no"	90	"a"	"blackFace1.bmp"	1000	"black"	2	"+"	"weapon2.bmp"	"weapon"	1	"a"	"a"	368	NA	9	5.8
10	1	1	2	2	5	"toolRight"	2	"WITproc"	"l"	"a"	2	"WIT"	"no"	91	"l"	"whiteFace6.bmp"	1200	"white"	2	"+"	"tool4.bmp"	"tool"	1	"l"	"l"	415	NA	9	5.8
10	1	1	2	2	5	"toolRight"	2	"WITproc"	"l"	"a"	2	"WIT"	"no"	92	"l"	"blackFace5.bmp"	800	"black"	2	"+"	"tool2.bmp"	"tool"	1	"l"	"l"	407	NA	9	5.8
10	1	1	2	2	5	"toolRight"	2	"WITproc"	"l"	"a"	2	"WIT"	"no"	93	"l"	"blackFace2.bmp"	1000	"black"	2	"+"	"tool4.bmp"	"tool"	1	"l"	"l"	374	NA	9	5.8
10	1	1	2	2	5	"toolRight"	2	"WITproc"	"l"	"a"	2	"WIT"	"no"	94	"l"	"whiteFace1.bmp"	1200	"white"	2	"+"	"tool3.bmp"	"tool"	1	"l"	"l"	430	NA	9	5.8
10	1	1	2	2	5	"toolRight"	2	"WITproc"	"l"	"a"	2	"WIT"	"no"	95	"l"	"blackFace6.bmp"	1000	"black"	2	"+"	"tool4.bmp"	"tool"	1	"l"	"l"	349	NA	9	5.8
10	1	1	2	2	5	"toolRight"	2	"WITproc"	"l"	"a"	2	"WIT"	"no"	96	"l"	"whiteFace4.bmp"	1200	"white"	2	"+"	"tool4.bmp"	"tool"	1	"l"	"l"	412	NA	9	5.8
10	1	1	2	2	5	"toolRight"	2	"WITproc"	"l"	"a"	2	"WIT"	"no"	97	"a"	"blackFace5.bmp"	800	"black"	3	"TOO SLOW"	"weapon4.bmp"	"weapon"	0	"a"	""	0	NA	9	5.8
10	1	1	2	2	5	"toolRight"	2	"WITproc"	"l"	"a"	2	"WIT"	"no"	98	"a"	"whiteFace2.bmp"	800	"white"	1	"+"	"weapon2.bmp"	"weapon"	0	"a"	"l"	336	NA	9	5.8
10	1	1	2	2	5	"toolRight"	2	"WITproc"	"l"	"a"	2	"WIT"	"no"	99	"a"	"whiteFace4.bmp"	1000	"white"	1	"+"	"weapon1.bmp"	"weapon"	0	"a"	"l"	240	NA	9	5.8
10	1	1	2	2	5	"toolRight"	2	"WITproc"	"l"	"a"	2	"WIT"	"no"	100	"a"	"whiteFace7.bmp"	1200	"white"	1	"+"	"weapon1.bmp"	"weapon"	0	"a"	"l"	199	NA	9	5.8
10	1	1	2	2	5	"toolRight"	2	"WITproc"	"l"	"a"	2	"WIT"	"no"	101	"a"	"blackFace2.bmp"	1200	"black"	2	"+"	"weapon2.bmp"	"weapon"	1	"a"	"a"	350	NA	9	5.8
10	1	1	2	2	5	"toolRight"	2	"WITproc"	"l"	"a"	2	"WIT"	"no"	102	"a"	"whiteFace4.bmp"	1000	"white"	2	"+"	"weapon3.bmp"	"weapon"	1	"a"	"a"	414	NA	9	5.8
10	1	1	2	2	5	"toolRight"	2	"WITproc"	"l"	"a"	2	"WIT"	"no"	103	"l"	"whiteFace1.bmp"	800	"white"	3	"TOO SLOW"	"tool1.bmp"	"tool"	0	"l"	""	0	NA	9	5.8
10	1	1	2	2	5	"toolRight"	2	"WITproc"	"l"	"a"	2	"WIT"	"no"	104	"a"	"blackFace5.bmp"	1000	"black"	2	"+"	"weapon3.bmp"	"weapon"	1	"a"	"a"	316	NA	9	5.8
10	1	1	2	2	5	"toolRight"	2	"WITproc"	"l"	"a"	2	"WIT"	"no"	105	"l"	"whiteFace5.bmp"	800	"white"	2	"+"	"tool3.bmp"	"tool"	1	"l"	"l"	404	NA	9	5.8
10	1	1	2	2	5	"toolRight"	2	"WITproc"	"l"	"a"	2	"WIT"	"no"	106	"a"	"blackFace2.bmp"	1200	"black"	1	"+"	"weapon1.bmp"	"weapon"	0	"a"	"l"	267	NA	9	5.8
10	1	1	2	2	5	"toolRight"	2	"WITproc"	"l"	"a"	2	"WIT"	"no"	107	"l"	"whiteFace5.bmp"	800	"white"	2	"+"	"tool2.bmp"	"tool"	1	"l"	"l"	387	NA	9	5.8
10	1	1	2	2	5	"toolRight"	2	"WITproc"	"l"	"a"	2	"WIT"	"no"	108	"a"	"whiteFace1.bmp"	1200	"white"	2	"+"	"weapon4.bmp"	"weapon"	1	"a"	"a"	450	NA	9	5.8
10	1	1	2	2	5	"toolRight"	2	"WITproc"	"l"	"a"	2	"WIT"	"no"	109	"a"	"blackFace8.bmp"	1000	"black"	2	"+"	"weapon1.bmp"	"weapon"	1	"a"	"a"	377	NA	9	5.8
10	1	1	2	2	5	"toolRight"	2	"WITproc"	"l"	"a"	2	"WIT"	"no"	110	"l"	"whiteFace2.bmp"	1000	"white"	1	"+"	"tool1.bmp"	"tool"	0	"l"	"a"	416	NA	9	5.8
10	1	1	2	2	5	"toolRight"	2	"WITproc"	"l"	"a"	2	"WIT"	"no"	111	"a"	"blackFace5.bmp"	800	"black"	2	"+"	"weapon1.bmp"	"weapon"	1	"a"	"a"	487	NA	9	5.8
10	1	1	2	2	5	"toolRight"	2	"WITproc"	"l"	"a"	2	"WIT"	"no"	112	"a"	"whiteFace5.bmp"	1200	"white"	2	"+"	"weapon1.bmp"	"weapon"	1	"a"	"a"	406	NA	9	5.8
10	1	1	2	2	5	"toolRight"	2	"WITproc"	"l"	"a"	2	"WIT"	"no"	113	"a"	"whiteFace1.bmp"	800	"white"	2	"+"	"weapon1.bmp"	"weapon"	1	"a"	"a"	414	NA	9	5.8
10	1	1	2	2	5	"toolRight"	2	"WITproc"	"l"	"a"	2	"WIT"	"no"	114	"l"	"blackFace3.bmp"	1200	"black"	2	"+"	"tool4.bmp"	"tool"	1	"l"	"l"	477	NA	9	5.8
10	1	1	2	2	5	"toolRight"	2	"WITproc"	"l"	"a"	2	"WIT"	"no"	115	"l"	"whiteFace8.bmp"	1000	"white"	3	"TOO SLOW"	"tool3.bmp"	"tool"	0	"l"	""	0	NA	9	5.8
10	1	1	2	2	5	"toolRight"	2	"WITproc"	"l"	"a"	2	"WIT"	"no"	116	"l"	"whiteFace2.bmp"	1000	"white"	2	"+"	"tool2.bmp"	"tool"	1	"l"	"l"	324	NA	9	5.8
10	1	1	2	2	5	"toolRight"	2	"WITproc"	"l"	"a"	2	"WIT"	"no"	117	"l"	"blackFace1.bmp"	1200	"black"	1	"+"	"tool2.bmp"	"tool"	0	"l"	"a"	371	NA	9	5.8
10	1	1	2	2	5	"toolRight"	2	"WITproc"	"l"	"a"	2	"WIT"	"no"	118	"a"	"blackFace7.bmp"	800	"black"	1	"+"	"weapon1.bmp"	"weapon"	0	"a"	"l"	403	NA	9	5.8
10	1	1	2	2	5	"toolRight"	2	"WITproc"	"l"	"a"	2	"WIT"	"no"	119	"a"	"blackFace4.bmp"	800	"black"	2	"+"	"weapon3.bmp"	"weapon"	1	"a"	"a"	394	NA	9	5.8
10	1	1	2	2	5	"toolRight"	2	"WITproc"	"l"	"a"	2	"WIT"	"no"	120	"l"	"whiteFace8.bmp"	1200	"white"	2	"+"	"tool2.bmp"	"tool"	1	"l"	"l"	473	NA	9	5.8
10	1	1	2	2	5	"toolRight"	2	"WITproc"	"l"	"a"	2	"WIT"	"no"	121	"l"	"blackFace8.bmp"	1000	"black"	2	"+"	"tool3.bmp"	"tool"	1	"l"	"l"	433	NA	9	5.8
10	1	1	2	2	5	"toolRight"	2	"WITproc"	"l"	"a"	2	"WIT"	"no"	122	"l"	"blackFace2.bmp"	1000	"black"	1	"+"	"tool1.bmp"	"tool"	0	"l"	"a"	408	NA	9	5.8
10	1	1	2	2	5	"toolRight"	2	"WITproc"	"l"	"a"	2	"WIT"	"no"	123	"l"	"blackFace5.bmp"	1200	"black"	2	"+"	"tool4.bmp"	"tool"	1	"l"	"l"	295	NA	9	5.8
10	1	1	2	2	5	"toolRight"	2	"WITproc"	"l"	"a"	2	"WIT"	"no"	124	"a"	"blackFace3.bmp"	800	"black"	2	"+"	"weapon3.bmp"	"weapon"	1	"a"	"a"	447	NA	9	5.8
10	1	1	2	2	5	"toolRight"	2	"WITproc"	"l"	"a"	2	"WIT"	"no"	125	"a"	"blackFace1.bmp"	1200	"black"	2	"+"	"weapon4.bmp"	"weapon"	1	"a"	"a"	350	NA	9	5.8
10	1	1	2	2	5	"toolRight"	2	"WITproc"	"l"	"a"	2	"WIT"	"no"	126	"l"	"whiteFace3.bmp"	800	"white"	2	"+"	"tool2.bmp"	"tool"	1	"l"	"l"	390	NA	9	5.8
10	1	1	2	2	5	"toolRight"	2	"WITproc"	"l"	"a"	2	"WIT"	"no"	127	"l"	"blackFace8.bmp"	1000	"black"	1	"+"	"tool2.bmp"	"tool"	0	"l"	"a"	301	NA	9	5.8
10	1	1	2	2	5	"toolRight"	2	"WITproc"	"l"	"a"	2	"WIT"	"no"	128	"l"	"whiteFace3.bmp"	1000	"white"	2	"+"	"tool3.bmp"	"tool"	1	"l"	"l"	348	NA	9	5.8
10	1	1	2	2	5	"toolRight"	2	"WITproc"	"l"	"a"	2	"WIT"	"no"	129	"a"	"blackFace4.bmp"	1200	"black"	3	"TOO SLOW"	"weapon1.bmp"	"weapon"	0	"a"	""	0	NA	9	5.8
10	1	1	2	2	5	"toolRight"	2	"WITproc"	"l"	"a"	2	"WIT"	"no"	130	"a"	"whiteFace4.bmp"	800	"white"	2	"+"	"weapon4.bmp"	"weapon"	1	"a"	"a"	443	NA	9	5.8
10	1	1	2	2	5	"toolRight"	2	"WITproc"	"l"	"a"	2	"WIT"	"no"	131	"l"	"whiteFace1.bmp"	1000	"white"	3	"TOO SLOW"	"tool1.bmp"	"tool"	0	"l"	""	0	NA	9	5.8
10	1	1	2	2	5	"toolRight"	2	"WITproc"	"l"	"a"	2	"WIT"	"no"	132	"a"	"whiteFace7.bmp"	1200	"white"	2	"+"	"weapon3.bmp"	"weapon"	1	"a"	"a"	417	NA	9	5.8
10	1	1	2	2	5	"toolRight"	2	"WITproc"	"l"	"a"	2	"WIT"	"no"	133	"a"	"blackFace2.bmp"	800	"black"	1	"+"	"weapon3.bmp"	"weapon"	0	"a"	"l"	264	NA	9	5.8
10	1	1	2	2	5	"toolRight"	2	"WITproc"	"l"	"a"	2	"WIT"	"no"	134	"a"	"whiteFace7.bmp"	800	"white"	2	"+"	"weapon4.bmp"	"weapon"	1	"a"	"a"	368	NA	9	5.8
10	1	1	2	2	5	"toolRight"	2	"WITproc"	"l"	"a"	2	"WIT"	"no"	135	"l"	"whiteFace7.bmp"	1000	"white"	2	"+"	"tool1.bmp"	"tool"	1	"l"	"l"	455	NA	9	5.8
10	1	1	2	2	5	"toolRight"	2	"WITproc"	"l"	"a"	2	"WIT"	"no"	136	"l"	"whiteFace2.bmp"	1200	"white"	2	"+"	"tool2.bmp"	"tool"	1	"l"	"l"	447	NA	9	5.8
10	1	1	2	2	5	"toolRight"	2	"WITproc"	"l"	"a"	2	"WIT"	"no"	137	"a"	"whiteFace6.bmp"	800	"white"	1	"+"	"weapon1.bmp"	"weapon"	0	"a"	"l"	366	NA	9	5.8
10	1	1	2	2	5	"toolRight"	2	"WITproc"	"l"	"a"	2	"WIT"	"no"	138	"l"	"whiteFace3.bmp"	1000	"white"	2	"+"	"tool2.bmp"	"tool"	1	"l"	"l"	461	NA	9	5.8
10	1	1	2	2	5	"toolRight"	2	"WITproc"	"l"	"a"	2	"WIT"	"no"	139	"l"	"whiteFace4.bmp"	1200	"white"	2	"+"	"tool4.bmp"	"tool"	1	"l"	"l"	445	NA	9	5.8
10	1	1	2	2	5	"toolRight"	2	"WITproc"	"l"	"a"	2	"WIT"	"no"	140	"l"	"blackFace1.bmp"	1000	"black"	2	"+"	"tool2.bmp"	"tool"	1	"l"	"l"	388	NA	9	5.8
10	1	1	2	2	5	"toolRight"	2	"WITproc"	"l"	"a"	2	"WIT"	"no"	141	"a"	"whiteFace7.bmp"	1200	"white"	2	"+"	"weapon2.bmp"	"weapon"	1	"a"	"a"	387	NA	9	5.8
10	1	1	2	2	5	"toolRight"	2	"WITproc"	"l"	"a"	2	"WIT"	"no"	142	"a"	"whiteFace6.bmp"	800	"white"	2	"+"	"weapon4.bmp"	"weapon"	1	"a"	"a"	378	NA	9	5.8
10	1	1	2	2	5	"toolRight"	2	"WITproc"	"l"	"a"	2	"WIT"	"no"	143	"a"	"whiteFace1.bmp"	1200	"white"	2	"+"	"weapon1.bmp"	"weapon"	1	"a"	"a"	361	NA	9	5.8
10	1	1	2	2	5	"toolRight"	2	"WITproc"	"l"	"a"	2	"WIT"	"no"	144	"l"	"whiteFace6.bmp"	1000	"white"	1	"+"	"tool3.bmp"	"tool"	0	"l"	"a"	360	NA	9	5.8
10	1	1	2	2	5	"toolRight"	2	"WITproc"	"l"	"a"	2	"WIT"	"no"	145	"a"	"blackFace7.bmp"	800	"black"	2	"+"	"weapon4.bmp"	"weapon"	1	"a"	"a"	392	NA	9	5.8
10	1	1	2	2	5	"toolRight"	2	"WITproc"	"l"	"a"	2	"WIT"	"no"	146	"l"	"whiteFace3.bmp"	1200	"white"	2	"+"	"tool3.bmp"	"tool"	1	"l"	"l"	351	NA	9	5.8
10	1	1	2	2	5	"toolRight"	2	"WITproc"	"l"	"a"	2	"WIT"	"no"	147	"a"	"blackFace6.bmp"	800	"black"	2	"+"	"weapon4.bmp"	"weapon"	1	"a"	"a"	423	NA	9	5.8
10	1	1	2	2	5	"toolRight"	2	"WITproc"	"l"	"a"	2	"WIT"	"no"	148	"l"	"whiteFace7.bmp"	1000	"white"	3	"TOO SLOW"	"tool4.bmp"	"tool"	0	"l"	""	0	NA	9	5.8
10	1	1	2	2	5	"toolRight"	2	"WITproc"	"l"	"a"	2	"WIT"	"no"	149	"a"	"blackFace4.bmp"	1000	"black"	2	"+"	"weapon4.bmp"	"weapon"	1	"a"	"a"	309	NA	9	5.8
10	1	1	2	2	5	"toolRight"	2	"WITproc"	"l"	"a"	2	"WIT"	"no"	150	"a"	"whiteFace2.bmp"	1200	"white"	1	"+"	"weapon2.bmp"	"weapon"	0	"a"	"l"	333	NA	9	5.8
10	1	1	2	2	5	"toolRight"	2	"WITproc"	"l"	"a"	2	"WIT"	"no"	151	"a"	"blackFace6.bmp"	800	"black"	2	"+"	"weapon3.bmp"	"weapon"	1	"a"	"a"	460	NA	9	5.8
10	1	1	2	2	5	"toolRight"	2	"WITproc"	"l"	"a"	2	"WIT"	"no"	152	"l"	"blackFace1.bmp"	1000	"black"	1	"+"	"tool1.bmp"	"tool"	0	"l"	"a"	347	NA	9	5.8
10	1	1	2	2	5	"toolRight"	2	"WITproc"	"l"	"a"	2	"WIT"	"no"	153	"a"	"blackFace1.bmp"	1200	"black"	2	"+"	"weapon2.bmp"	"weapon"	1	"a"	"a"	435	NA	9	5.8
10	1	1	2	2	5	"toolRight"	2	"WITproc"	"l"	"a"	2	"WIT"	"no"	154	"a"	"whiteFace4.bmp"	800	"white"	2	"+"	"weapon2.bmp"	"weapon"	1	"a"	"a"	450	NA	9	5.8
10	1	1	2	2	5	"toolRight"	2	"WITproc"	"l"	"a"	2	"WIT"	"no"	155	"l"	"whiteFace3.bmp"	1000	"white"	2	"+"	"tool4.bmp"	"tool"	1	"l"	"l"	409	NA	9	5.8
10	1	1	2	2	5	"toolRight"	2	"WITproc"	"l"	"a"	2	"WIT"	"no"	156	"l"	"blackFace5.bmp"	1200	"black"	2	"+"	"tool1.bmp"	"tool"	1	"l"	"l"	441	NA	9	5.8
10	1	1	2	2	5	"toolRight"	2	"WITproc"	"l"	"a"	2	"WIT"	"no"	157	"a"	"blackFace5.bmp"	800	"black"	2	"+"	"weapon4.bmp"	"weapon"	1	"a"	"a"	304	NA	9	5.8
10	1	1	2	2	5	"toolRight"	2	"WITproc"	"l"	"a"	2	"WIT"	"no"	158	"l"	"blackFace6.bmp"	1000	"black"	2	"+"	"tool3.bmp"	"tool"	1	"l"	"l"	360	NA	9	5.8
10	1	1	2	2	5	"toolRight"	2	"WITproc"	"l"	"a"	2	"WIT"	"no"	159	"a"	"blackFace7.bmp"	800	"black"	2	"+"	"weapon3.bmp"	"weapon"	1	"a"	"a"	263	NA	9	5.8
10	1	1	2	2	5	"toolRight"	2	"WITproc"	"l"	"a"	2	"WIT"	"no"	160	"a"	"whiteFace8.bmp"	1200	"white"	1	"+"	"weapon3.bmp"	"weapon"	0	"a"	"l"	278	NA	9	5.8
10	1	1	2	2	5	"toolRight"	2	"WITproc"	"l"	"a"	2	"WIT"	"no"	161	"a"	"whiteFace5.bmp"	1200	"white"	2	"+"	"weapon3.bmp"	"weapon"	1	"a"	"a"	406	NA	9	5.8
10	1	1	2	2	5	"toolRight"	2	"WITproc"	"l"	"a"	2	"WIT"	"no"	162	"l"	"blackFace4.bmp"	1000	"black"	3	"TOO SLOW"	"tool3.bmp"	"tool"	0	"l"	""	0	NA	9	5.8
10	1	1	2	2	5	"toolRight"	2	"WITproc"	"l"	"a"	2	"WIT"	"no"	163	"a"	"blackFace2.bmp"	800	"black"	2	"+"	"weapon4.bmp"	"weapon"	1	"a"	"a"	380	NA	9	5.8
10	1	1	2	2	5	"toolRight"	2	"WITproc"	"l"	"a"	2	"WIT"	"no"	164	"l"	"whiteFace1.bmp"	1200	"white"	2	"+"	"tool3.bmp"	"tool"	1	"l"	"l"	300	NA	9	5.8
10	1	1	2	2	5	"toolRight"	2	"WITproc"	"l"	"a"	2	"WIT"	"no"	165	"a"	"blackFace5.bmp"	800	"black"	2	"+"	"weapon2.bmp"	"weapon"	1	"a"	"a"	363	NA	9	5.8
10	1	1	2	2	5	"toolRight"	2	"WITproc"	"l"	"a"	2	"WIT"	"no"	166	"a"	"blackFace4.bmp"	1000	"black"	2	"+"	"weapon2.bmp"	"weapon"	1	"a"	"a"	442	NA	9	5.8
10	1	1	2	2	5	"toolRight"	2	"WITproc"	"l"	"a"	2	"WIT"	"no"	167	"l"	"blackFace6.bmp"	800	"black"	2	"+"	"tool4.bmp"	"tool"	1	"l"	"l"	394	NA	9	5.8
10	1	1	2	2	5	"toolRight"	2	"WITproc"	"l"	"a"	2	"WIT"	"no"	168	"l"	"blackFace7.bmp"	1000	"black"	2	"+"	"tool2.bmp"	"tool"	1	"l"	"l"	361	NA	9	5.8
10	1	1	2	2	5	"toolRight"	2	"WITproc"	"l"	"a"	2	"WIT"	"no"	169	"l"	"blackFace5.bmp"	1200	"black"	2	"+"	"tool3.bmp"	"tool"	1	"l"	"l"	409	NA	9	5.8
10	1	1	2	2	5	"toolRight"	2	"WITproc"	"l"	"a"	2	"WIT"	"no"	170	"l"	"blackFace4.bmp"	1200	"black"	2	"+"	"tool4.bmp"	"tool"	1	"l"	"l"	400	NA	9	5.8
10	1	1	2	2	5	"toolRight"	2	"WITproc"	"l"	"a"	2	"WIT"	"no"	171	"l"	"blackFace7.bmp"	1000	"black"	2	"+"	"tool4.bmp"	"tool"	1	"l"	"l"	423	NA	9	5.8
10	1	1	2	2	5	"toolRight"	2	"WITproc"	"l"	"a"	2	"WIT"	"no"	172	"l"	"whiteFace6.bmp"	800	"white"	2	"+"	"tool2.bmp"	"tool"	1	"l"	"l"	391	NA	9	5.8
10	1	1	2	2	5	"toolRight"	2	"WITproc"	"l"	"a"	2	"WIT"	"no"	173	"l"	"blackFace2.bmp"	1200	"black"	1	"+"	"tool1.bmp"	"tool"	0	"l"	"a"	365	NA	9	5.8
10	1	1	2	2	5	"toolRight"	2	"WITproc"	"l"	"a"	2	"WIT"	"no"	174	"l"	"blackFace4.bmp"	1000	"black"	2	"+"	"tool2.bmp"	"tool"	1	"l"	"l"	388	NA	9	5.8
10	1	1	2	2	5	"toolRight"	2	"WITproc"	"l"	"a"	2	"WIT"	"no"	175	"l"	"whiteFace7.bmp"	800	"white"	2	"+"	"tool2.bmp"	"tool"	1	"l"	"l"	356	NA	9	5.8
10	1	1	2	2	5	"toolRight"	2	"WITproc"	"l"	"a"	2	"WIT"	"no"	176	"l"	"blackFace3.bmp"	1200	"black"	2	"+"	"tool3.bmp"	"tool"	1	"l"	"l"	491	NA	9	5.8
10	1	1	2	2	5	"toolRight"	2	"WITproc"	"l"	"a"	2	"WIT"	"no"	177	"a"	"whiteFace6.bmp"	800	"white"	1	"+"	"weapon2.bmp"	"weapon"	0	"a"	"l"	402	NA	9	5.8
10	1	1	2	2	5	"toolRight"	2	"WITproc"	"l"	"a"	2	"WIT"	"no"	178	"a"	"blackFace2.bmp"	1000	"black"	1	"+"	"weapon2.bmp"	"weapon"	0	"a"	"l"	386	NA	9	5.8
10	1	1	2	2	5	"toolRight"	2	"WITproc"	"l"	"a"	2	"WIT"	"no"	179	"a"	"blackFace3.bmp"	1000	"black"	2	"+"	"weapon2.bmp"	"weapon"	1	"a"	"a"	369	NA	9	5.8
10	1	1	2	2	5	"toolRight"	2	"WITproc"	"l"	"a"	2	"WIT"	"no"	180	"l"	"whiteFace5.bmp"	800	"white"	2	"+"	"tool4.bmp"	"tool"	1	"l"	"l"	409	NA	9	5.8
10	1	1	2	2	5	"toolRight"	2	"WITproc"	"l"	"a"	2	"WIT"	"no"	181	"l"	"whiteFace8.bmp"	1200	"white"	2	"+"	"tool4.bmp"	"tool"	1	"l"	"l"	384	NA	9	5.8
10	1	1	2	2	5	"toolRight"	2	"WITproc"	"l"	"a"	2	"WIT"	"no"	182	"a"	"whiteFace3.bmp"	800	"white"	2	"+"	"weapon4.bmp"	"weapon"	1	"a"	"a"	383	NA	9	5.8
10	1	1	2	2	5	"toolRight"	2	"WITproc"	"l"	"a"	2	"WIT"	"no"	183	"l"	"blackFace4.bmp"	1200	"black"	2	"+"	"tool1.bmp"	"tool"	1	"l"	"l"	399	NA	9	5.8
10	1	1	2	2	5	"toolRight"	2	"WITproc"	"l"	"a"	2	"WIT"	"no"	184	"l"	"blackFace2.bmp"	1000	"black"	2	"+"	"tool3.bmp"	"tool"	1	"l"	"l"	406	NA	9	5.8
10	1	1	2	2	5	"toolRight"	2	"WITproc"	"l"	"a"	2	"WIT"	"no"	185	"a"	"blackFace7.bmp"	1000	"black"	2	"+"	"weapon1.bmp"	"weapon"	1	"a"	"a"	445	NA	9	5.8
10	1	1	2	2	5	"toolRight"	2	"WITproc"	"l"	"a"	2	"WIT"	"no"	186	"a"	"whiteFace8.bmp"	1200	"white"	2	"+"	"weapon4.bmp"	"weapon"	1	"a"	"a"	365	NA	9	5.8
10	1	1	2	2	5	"toolRight"	2	"WITproc"	"l"	"a"	2	"WIT"	"no"	187	"l"	"whiteFace1.bmp"	800	"white"	2	"+"	"tool2.bmp"	"tool"	1	"l"	"l"	356	NA	9	5.8
10	1	1	2	2	5	"toolRight"	2	"WITproc"	"l"	"a"	2	"WIT"	"no"	188	"a"	"whiteFace2.bmp"	800	"white"	2	"+"	"weapon1.bmp"	"weapon"	1	"a"	"a"	364	NA	9	5.8
10	1	1	2	2	5	"toolRight"	2	"WITproc"	"l"	"a"	2	"WIT"	"no"	189	"a"	"whiteFace5.bmp"	1200	"white"	2	"+"	"weapon4.bmp"	"weapon"	1	"a"	"a"	395	NA	9	5.8
10	1	1	2	2	5	"toolRight"	2	"WITproc"	"l"	"a"	2	"WIT"	"no"	190	"l"	"blackFace7.bmp"	1000	"black"	2	"+"	"tool3.bmp"	"tool"	1	"l"	"l"	458	NA	9	5.8
10	1	1	2	2	5	"toolRight"	2	"WITproc"	"l"	"a"	2	"WIT"	"no"	191	"l"	"whiteFace6.bmp"	1200	"white"	2	"+"	"tool4.bmp"	"tool"	1	"l"	"l"	402	NA	9	5.8
10	1	1	2	2	5	"toolRight"	2	"WITproc"	"l"	"a"	2	"WIT"	"no"	192	"a"	"blackFace1.bmp"	800	"black"	2	"+"	"weapon4.bmp"	"weapon"	1	"a"	"a"	441	NA	9	5.8
100	1	1	3	1	5	"toolLeft"	1	"WITproc"	"a"	"l"	2	"WIT"	"no"	1	"l"	"blackFace7.bmp"	1200	"black"	2	"+"	"weapon4.bmp"	"weapon"	1	"l"	"l"	452	NA	4.4	5.2
100	1	1	3	1	5	"toolLeft"	1	"WITproc"	"a"	"l"	2	"WIT"	"no"	2	"a"	"blackFace7.bmp"	800	"black"	1	"+"	"tool1.bmp"	"tool"	0	"a"	"l"	308	NA	4.4	5.2
100	1	1	3	1	5	"toolLeft"	1	"WITproc"	"a"	"l"	2	"WIT"	"no"	3	"l"	"whiteFace4.bmp"	1200	"white"	2	"+"	"weapon2.bmp"	"weapon"	1	"l"	"l"	459	NA	4.4	5.2
100	1	1	3	1	5	"toolLeft"	1	"WITproc"	"a"	"l"	2	"WIT"	"no"	4	"l"	"whiteFace3.bmp"	1000	"white"	2	"+"	"weapon4.bmp"	"weapon"	1	"l"	"l"	394	NA	4.4	5.2
100	1	1	3	1	5	"toolLeft"	1	"WITproc"	"a"	"l"	2	"WIT"	"no"	5	"l"	"blackFace2.bmp"	800	"black"	2	"+"	"weapon4.bmp"	"weapon"	1	"l"	"l"	466	NA	4.4	5.2
100	1	1	3	1	5	"toolLeft"	1	"WITproc"	"a"	"l"	2	"WIT"	"no"	6	"a"	"blackFace5.bmp"	800	"black"	1	"+"	"tool1.bmp"	"tool"	0	"a"	"l"	401	NA	4.4	5.2
100	1	1	3	1	5	"toolLeft"	1	"WITproc"	"a"	"l"	2	"WIT"	"no"	7	"l"	"blackFace1.bmp"	1000	"black"	2	"+"	"weapon4.bmp"	"weapon"	1	"l"	"l"	377	NA	4.4	5.2
100	1	1	3	1	5	"toolLeft"	1	"WITproc"	"a"	"l"	2	"WIT"	"no"	8	"a"	"whiteFace5.bmp"	1200	"white"	1	"+"	"tool3.bmp"	"tool"	0	"a"	"l"	416	NA	4.4	5.2
100	1	1	3	1	5	"toolLeft"	1	"WITproc"	"a"	"l"	2	"WIT"	"no"	9	"l"	"blackFace6.bmp"	1000	"black"	2	"+"	"weapon2.bmp"	"weapon"	1	"l"	"l"	367	NA	4.4	5.2
100	1	1	3	1	5	"toolLeft"	1	"WITproc"	"a"	"l"	2	"WIT"	"no"	10	"l"	"blackFace8.bmp"	800	"black"	2	"+"	"weapon4.bmp"	"weapon"	1	"l"	"l"	398	NA	4.4	5.2
100	1	1	3	1	5	"toolLeft"	1	"WITproc"	"a"	"l"	2	"WIT"	"no"	11	"l"	"blackFace4.bmp"	1200	"black"	2	"+"	"weapon3.bmp"	"weapon"	1	"l"	"l"	365	NA	4.4	5.2
100	1	1	3	1	5	"toolLeft"	1	"WITproc"	"a"	"l"	2	"WIT"	"no"	12	"l"	"blackFace4.bmp"	800	"black"	2	"+"	"weapon4.bmp"	"weapon"	1	"l"	"l"	372	NA	4.4	5.2
100	1	1	3	1	5	"toolLeft"	1	"WITproc"	"a"	"l"	2	"WIT"	"no"	13	"a"	"whiteFace5.bmp"	1200	"white"	2	"+"	"tool2.bmp"	"tool"	1	"a"	"a"	356	NA	4.4	5.2
100	1	1	3	1	5	"toolLeft"	1	"WITproc"	"a"	"l"	2	"WIT"	"no"	14	"a"	"whiteFace2.bmp"	1000	"white"	2	"+"	"tool4.bmp"	"tool"	1	"a"	"a"	387	NA	4.4	5.2
100	1	1	3	1	5	"toolLeft"	1	"WITproc"	"a"	"l"	2	"WIT"	"no"	15	"a"	"whiteFace7.bmp"	1200	"white"	2	"+"	"tool4.bmp"	"tool"	1	"a"	"a"	482	NA	4.4	5.2
100	1	1	3	1	5	"toolLeft"	1	"WITproc"	"a"	"l"	2	"WIT"	"no"	16	"a"	"whiteFace8.bmp"	800	"white"	1	"+"	"tool1.bmp"	"tool"	0	"a"	"l"	434	NA	4.4	5.2
100	1	1	3	1	5	"toolLeft"	1	"WITproc"	"a"	"l"	2	"WIT"	"no"	17	"a"	"blackFace1.bmp"	1000	"black"	1	"+"	"tool1.bmp"	"tool"	0	"a"	"l"	489	NA	4.4	5.2
100	1	1	3	1	5	"toolLeft"	1	"WITproc"	"a"	"l"	2	"WIT"	"no"	18	"a"	"blackFace7.bmp"	1000	"black"	2	"+"	"tool2.bmp"	"tool"	1	"a"	"a"	448	NA	4.4	5.2
100	1	1	3	1	5	"toolLeft"	1	"WITproc"	"a"	"l"	2	"WIT"	"no"	19	"a"	"whiteFace8.bmp"	1200	"white"	2	"+"	"tool2.bmp"	"tool"	1	"a"	"a"	447	NA	4.4	5.2
100	1	1	3	1	5	"toolLeft"	1	"WITproc"	"a"	"l"	2	"WIT"	"no"	20	"a"	"blackFace3.bmp"	800	"black"	2	"+"	"tool2.bmp"	"tool"	1	"a"	"a"	478	NA	4.4	5.2
100	1	1	3	1	5	"toolLeft"	1	"WITproc"	"a"	"l"	2	"WIT"	"no"	21	"l"	"blackFace3.bmp"	1200	"black"	3	"TOO SLOW"	"weapon3.bmp"	"weapon"	0	"l"	""	0	NA	4.4	5.2
100	1	1	3	1	5	"toolLeft"	1	"WITproc"	"a"	"l"	2	"WIT"	"no"	22	"l"	"whiteFace7.bmp"	800	"white"	2	"+"	"weapon1.bmp"	"weapon"	1	"l"	"l"	484	NA	4.4	5.2
100	1	1	3	1	5	"toolLeft"	1	"WITproc"	"a"	"l"	2	"WIT"	"no"	23	"l"	"whiteFace4.bmp"	1000	"white"	2	"+"	"weapon4.bmp"	"weapon"	1	"l"	"l"	340	NA	4.4	5.2
100	1	1	3	1	5	"toolLeft"	1	"WITproc"	"a"	"l"	2	"WIT"	"no"	24	"l"	"whiteFace2.bmp"	1200	"white"	2	"+"	"weapon1.bmp"	"weapon"	1	"l"	"l"	339	NA	4.4	5.2
100	1	1	3	1	5	"toolLeft"	1	"WITproc"	"a"	"l"	2	"WIT"	"no"	25	"a"	"whiteFace5.bmp"	1000	"white"	1	"+"	"tool4.bmp"	"tool"	0	"a"	"l"	379	NA	4.4	5.2
100	1	1	3	1	5	"toolLeft"	1	"WITproc"	"a"	"l"	2	"WIT"	"no"	26	"a"	"blackFace3.bmp"	800	"black"	1	"+"	"tool1.bmp"	"tool"	0	"a"	"l"	346	NA	4.4	5.2
100	1	1	3	1	5	"toolLeft"	1	"WITproc"	"a"	"l"	2	"WIT"	"no"	27	"l"	"whiteFace6.bmp"	1200	"white"	2	"+"	"weapon4.bmp"	"weapon"	1	"l"	"l"	465	NA	4.4	5.2
100	1	1	3	1	5	"toolLeft"	1	"WITproc"	"a"	"l"	2	"WIT"	"no"	28	"l"	"blackFace8.bmp"	800	"black"	1	"+"	"weapon2.bmp"	"weapon"	0	"l"	"a"	432	NA	4.4	5.2
100	1	1	3	1	5	"toolLeft"	1	"WITproc"	"a"	"l"	2	"WIT"	"no"	29	"l"	"whiteFace6.bmp"	1000	"white"	3	"TOO SLOW"	"weapon2.bmp"	"weapon"	0	"l"	""	0	NA	4.4	5.2
100	1	1	3	1	5	"toolLeft"	1	"WITproc"	"a"	"l"	2	"WIT"	"no"	30	"a"	"whiteFace4.bmp"	800	"white"	3	"TOO SLOW"	"tool1.bmp"	"tool"	0	"a"	""	0	NA	4.4	5.2
100	1	1	3	1	5	"toolLeft"	1	"WITproc"	"a"	"l"	2	"WIT"	"no"	31	"a"	"blackFace4.bmp"	1000	"black"	1	"+"	"tool4.bmp"	"tool"	0	"a"	"l"	349	NA	4.4	5.2
100	1	1	3	1	5	"toolLeft"	1	"WITproc"	"a"	"l"	2	"WIT"	"no"	32	"a"	"blackFace6.bmp"	1200	"black"	1	"+"	"tool2.bmp"	"tool"	0	"a"	"l"	260	NA	4.4	5.2
100	1	1	3	1	5	"toolLeft"	1	"WITproc"	"a"	"l"	2	"WIT"	"no"	33	"a"	"whiteFace6.bmp"	1000	"white"	2	"+"	"tool2.bmp"	"tool"	1	"a"	"a"	419	NA	4.4	5.2
100	1	1	3	1	5	"toolLeft"	1	"WITproc"	"a"	"l"	2	"WIT"	"no"	34	"l"	"whiteFace3.bmp"	800	"white"	1	"+"	"weapon1.bmp"	"weapon"	0	"l"	"a"	370	NA	4.4	5.2
100	1	1	3	1	5	"toolLeft"	1	"WITproc"	"a"	"l"	2	"WIT"	"no"	35	"a"	"blackFace6.bmp"	1200	"black"	1	"+"	"tool4.bmp"	"tool"	0	"a"	"l"	402	NA	4.4	5.2
100	1	1	3	1	5	"toolLeft"	1	"WITproc"	"a"	"l"	2	"WIT"	"no"	36	"l"	"blackFace4.bmp"	1000	"black"	2	"+"	"weapon1.bmp"	"weapon"	1	"l"	"l"	368	NA	4.4	5.2
100	1	1	3	1	5	"toolLeft"	1	"WITproc"	"a"	"l"	2	"WIT"	"no"	37	"l"	"blackFace5.bmp"	1200	"black"	2	"+"	"weapon3.bmp"	"weapon"	1	"l"	"l"	424	NA	4.4	5.2
100	1	1	3	1	5	"toolLeft"	1	"WITproc"	"a"	"l"	2	"WIT"	"no"	38	"a"	"blackFace2.bmp"	800	"black"	3	"TOO SLOW"	"tool4.bmp"	"tool"	0	"a"	""	0	NA	4.4	5.2
100	1	1	3	1	5	"toolLeft"	1	"WITproc"	"a"	"l"	2	"WIT"	"no"	39	"l"	"whiteFace3.bmp"	1200	"white"	2	"+"	"weapon3.bmp"	"weapon"	1	"l"	"l"	374	NA	4.4	5.2
100	1	1	3	1	5	"toolLeft"	1	"WITproc"	"a"	"l"	2	"WIT"	"no"	40	"l"	"blackFace6.bmp"	1000	"black"	2	"+"	"weapon3.bmp"	"weapon"	1	"l"	"l"	350	NA	4.4	5.2
100	1	1	3	1	5	"toolLeft"	1	"WITproc"	"a"	"l"	2	"WIT"	"no"	41	"a"	"blackFace5.bmp"	800	"black"	2	"+"	"tool3.bmp"	"tool"	1	"a"	"a"	397	NA	4.4	5.2
100	1	1	3	1	5	"toolLeft"	1	"WITproc"	"a"	"l"	2	"WIT"	"no"	42	"a"	"blackFace8.bmp"	1000	"black"	1	"+"	"tool1.bmp"	"tool"	0	"a"	"l"	453	NA	4.4	5.2
100	1	1	3	1	5	"toolLeft"	1	"WITproc"	"a"	"l"	2	"WIT"	"no"	43	"l"	"whiteFace6.bmp"	800	"white"	1	"+"	"weapon3.bmp"	"weapon"	0	"l"	"a"	404	NA	4.4	5.2
100	1	1	3	1	5	"toolLeft"	1	"WITproc"	"a"	"l"	2	"WIT"	"no"	44	"l"	"blackFace5.bmp"	1200	"black"	3	"TOO SLOW"	"weapon2.bmp"	"weapon"	0	"l"	""	0	NA	4.4	5.2
100	1	1	3	1	5	"toolLeft"	1	"WITproc"	"a"	"l"	2	"WIT"	"no"	45	"l"	"whiteFace5.bmp"	800	"white"	2	"+"	"weapon4.bmp"	"weapon"	1	"l"	"l"	370	NA	4.4	5.2
100	1	1	3	1	5	"toolLeft"	1	"WITproc"	"a"	"l"	2	"WIT"	"no"	46	"l"	"whiteFace2.bmp"	1000	"white"	2	"+"	"weapon4.bmp"	"weapon"	1	"l"	"l"	385	NA	4.4	5.2
100	1	1	3	1	5	"toolLeft"	1	"WITproc"	"a"	"l"	2	"WIT"	"no"	47	"a"	"blackFace2.bmp"	1200	"black"	1	"+"	"tool1.bmp"	"tool"	0	"a"	"l"	336	NA	4.4	5.2
100	1	1	3	1	5	"toolLeft"	1	"WITproc"	"a"	"l"	2	"WIT"	"no"	48	"a"	"whiteFace6.bmp"	800	"white"	2	"+"	"tool1.bmp"	"tool"	1	"a"	"a"	328	NA	4.4	5.2
100	1	1	3	1	5	"toolLeft"	1	"WITproc"	"a"	"l"	2	"WIT"	"no"	49	"a"	"whiteFace4.bmp"	1200	"white"	1	"+"	"tool2.bmp"	"tool"	0	"a"	"l"	343	NA	4.4	5.2
100	1	1	3	1	5	"toolLeft"	1	"WITproc"	"a"	"l"	2	"WIT"	"no"	50	"a"	"whiteFace5.bmp"	1000	"white"	3	"TOO SLOW"	"tool1.bmp"	"tool"	0	"a"	""	0	NA	4.4	5.2
100	1	1	3	1	5	"toolLeft"	1	"WITproc"	"a"	"l"	2	"WIT"	"no"	51	"l"	"whiteFace2.bmp"	1200	"white"	2	"+"	"weapon3.bmp"	"weapon"	1	"l"	"l"	493	NA	4.4	5.2
100	1	1	3	1	5	"toolLeft"	1	"WITproc"	"a"	"l"	2	"WIT"	"no"	52	"l"	"whiteFace5.bmp"	1000	"white"	2	"+"	"weapon1.bmp"	"weapon"	1	"l"	"l"	492	NA	4.4	5.2
100	1	1	3	1	5	"toolLeft"	1	"WITproc"	"a"	"l"	2	"WIT"	"no"	53	"a"	"whiteFace8.bmp"	800	"white"	2	"+"	"tool4.bmp"	"tool"	1	"a"	"a"	412	NA	4.4	5.2
100	1	1	3	1	5	"toolLeft"	1	"WITproc"	"a"	"l"	2	"WIT"	"no"	54	"l"	"whiteFace6.bmp"	800	"white"	1	"+"	"weapon1.bmp"	"weapon"	0	"l"	"a"	282	NA	4.4	5.2
100	1	1	3	1	5	"toolLeft"	1	"WITproc"	"a"	"l"	2	"WIT"	"no"	55	"a"	"whiteFace4.bmp"	1000	"white"	2	"+"	"tool4.bmp"	"tool"	1	"a"	"a"	482	NA	4.4	5.2
100	1	1	3	1	5	"toolLeft"	1	"WITproc"	"a"	"l"	2	"WIT"	"no"	56	"l"	"blackFace3.bmp"	1200	"black"	2	"+"	"weapon2.bmp"	"weapon"	1	"l"	"l"	393	NA	4.4	5.2
100	1	1	3	1	5	"toolLeft"	1	"WITproc"	"a"	"l"	2	"WIT"	"no"	57	"a"	"whiteFace7.bmp"	1000	"white"	2	"+"	"tool3.bmp"	"tool"	1	"a"	"a"	472	NA	4.4	5.2
100	1	1	3	1	5	"toolLeft"	1	"WITproc"	"a"	"l"	2	"WIT"	"no"	58	"a"	"blackFace4.bmp"	1200	"black"	1	"+"	"tool1.bmp"	"tool"	0	"a"	"l"	288	NA	4.4	5.2
100	1	1	3	1	5	"toolLeft"	1	"WITproc"	"a"	"l"	2	"WIT"	"no"	59	"a"	"whiteFace3.bmp"	800	"white"	2	"+"	"tool1.bmp"	"tool"	1	"a"	"a"	447	NA	4.4	5.2
100	1	1	3	1	5	"toolLeft"	1	"WITproc"	"a"	"l"	2	"WIT"	"no"	60	"a"	"blackFace6.bmp"	800	"black"	1	"+"	"tool1.bmp"	"tool"	0	"a"	"l"	367	NA	4.4	5.2
100	1	1	3	1	5	"toolLeft"	1	"WITproc"	"a"	"l"	2	"WIT"	"no"	61	"a"	"blackFace1.bmp"	1000	"black"	2	"+"	"tool4.bmp"	"tool"	1	"a"	"a"	462	NA	4.4	5.2
100	1	1	3	1	5	"toolLeft"	1	"WITproc"	"a"	"l"	2	"WIT"	"no"	62	"l"	"blackFace1.bmp"	1200	"black"	2	"+"	"weapon3.bmp"	"weapon"	1	"l"	"l"	373	NA	4.4	5.2
100	1	1	3	1	5	"toolLeft"	1	"WITproc"	"a"	"l"	2	"WIT"	"no"	63	"l"	"whiteFace3.bmp"	800	"white"	1	"+"	"weapon2.bmp"	"weapon"	0	"l"	"a"	317	NA	4.4	5.2
100	1	1	3	1	5	"toolLeft"	1	"WITproc"	"a"	"l"	2	"WIT"	"no"	64	"l"	"blackFace5.bmp"	1200	"black"	2	"+"	"weapon4.bmp"	"weapon"	1	"l"	"l"	444	NA	4.4	5.2
100	1	1	3	1	5	"toolLeft"	1	"WITproc"	"a"	"l"	2	"WIT"	"no"	65	"l"	"blackFace7.bmp"	1000	"black"	2	"+"	"weapon1.bmp"	"weapon"	1	"l"	"l"	411	NA	4.4	5.2
100	1	1	3	1	5	"toolLeft"	1	"WITproc"	"a"	"l"	2	"WIT"	"no"	66	"l"	"whiteFace1.bmp"	1200	"white"	2	"+"	"weapon1.bmp"	"weapon"	1	"l"	"l"	483	NA	4.4	5.2
100	1	1	3	1	5	"toolLeft"	1	"WITproc"	"a"	"l"	2	"WIT"	"no"	67	"l"	"whiteFace7.bmp"	1000	"white"	2	"+"	"weapon4.bmp"	"weapon"	1	"l"	"l"	378	NA	4.4	5.2
100	1	1	3	1	5	"toolLeft"	1	"WITproc"	"a"	"l"	2	"WIT"	"no"	68	"a"	"blackFace5.bmp"	800	"black"	2	"+"	"tool4.bmp"	"tool"	1	"a"	"a"	426	NA	4.4	5.2
100	1	1	3	1	5	"toolLeft"	1	"WITproc"	"a"	"l"	2	"WIT"	"no"	69	"a"	"blackFace4.bmp"	1000	"black"	2	"+"	"tool2.bmp"	"tool"	1	"a"	"a"	401	NA	4.4	5.2
100	1	1	3	1	5	"toolLeft"	1	"WITproc"	"a"	"l"	2	"WIT"	"no"	70	"a"	"blackFace2.bmp"	1200	"black"	2	"+"	"tool3.bmp"	"tool"	1	"a"	"a"	448	NA	4.4	5.2
100	1	1	3	1	5	"toolLeft"	1	"WITproc"	"a"	"l"	2	"WIT"	"no"	71	"a"	"whiteFace4.bmp"	800	"white"	2	"+"	"tool3.bmp"	"tool"	1	"a"	"a"	352	NA	4.4	5.2
100	1	1	3	1	5	"toolLeft"	1	"WITproc"	"a"	"l"	2	"WIT"	"no"	72	"a"	"blackFace4.bmp"	1000	"black"	2	"+"	"tool3.bmp"	"tool"	1	"a"	"a"	462	NA	4.4	5.2
100	1	1	3	1	5	"toolLeft"	1	"WITproc"	"a"	"l"	2	"WIT"	"no"	73	"l"	"blackFace2.bmp"	1200	"black"	2	"+"	"weapon1.bmp"	"weapon"	1	"l"	"l"	318	NA	4.4	5.2
100	1	1	3	1	5	"toolLeft"	1	"WITproc"	"a"	"l"	2	"WIT"	"no"	74	"a"	"whiteFace1.bmp"	800	"white"	1	"+"	"tool1.bmp"	"tool"	0	"a"	"l"	397	NA	4.4	5.2
100	1	1	3	1	5	"toolLeft"	1	"WITproc"	"a"	"l"	2	"WIT"	"no"	75	"a"	"blackFace3.bmp"	1200	"black"	2	"+"	"tool4.bmp"	"tool"	1	"a"	"a"	396	NA	4.4	5.2
100	1	1	3	1	5	"toolLeft"	1	"WITproc"	"a"	"l"	2	"WIT"	"no"	76	"l"	"whiteFace5.bmp"	800	"white"	1	"+"	"weapon2.bmp"	"weapon"	0	"l"	"a"	372	NA	4.4	5.2
100	1	1	3	1	5	"toolLeft"	1	"WITproc"	"a"	"l"	2	"WIT"	"no"	77	"a"	"blackFace8.bmp"	1000	"black"	3	"TOO SLOW"	"tool3.bmp"	"tool"	0	"a"	""	0	NA	4.4	5.2
100	1	1	3	1	5	"toolLeft"	1	"WITproc"	"a"	"l"	2	"WIT"	"no"	78	"a"	"whiteFace3.bmp"	800	"white"	2	"+"	"tool2.bmp"	"tool"	1	"a"	"a"	434	NA	4.4	5.2
100	1	1	3	1	5	"toolLeft"	1	"WITproc"	"a"	"l"	2	"WIT"	"no"	79	"l"	"blackFace7.bmp"	1000	"black"	2	"+"	"weapon3.bmp"	"weapon"	1	"l"	"l"	313	NA	4.4	5.2
100	1	1	3	1	5	"toolLeft"	1	"WITproc"	"a"	"l"	2	"WIT"	"no"	80	"a"	"whiteFace6.bmp"	1200	"white"	2	"+"	"tool4.bmp"	"tool"	1	"a"	"a"	425	NA	4.4	5.2
100	1	1	3	1	5	"toolLeft"	1	"WITproc"	"a"	"l"	2	"WIT"	"no"	81	"l"	"blackFace8.bmp"	1200	"black"	3	"TOO SLOW"	"weapon3.bmp"	"weapon"	0	"l"	""	0	NA	4.4	5.2
100	1	1	3	1	5	"toolLeft"	1	"WITproc"	"a"	"l"	2	"WIT"	"no"	82	"l"	"whiteFace1.bmp"	800	"white"	2	"+"	"weapon3.bmp"	"weapon"	1	"l"	"l"	431	NA	4.4	5.2
100	1	1	3	1	5	"toolLeft"	1	"WITproc"	"a"	"l"	2	"WIT"	"no"	83	"a"	"whiteFace1.bmp"	1000	"white"	2	"+"	"tool3.bmp"	"tool"	1	"a"	"a"	414	NA	4.4	5.2
100	1	1	3	1	5	"toolLeft"	1	"WITproc"	"a"	"l"	2	"WIT"	"no"	84	"a"	"whiteFace2.bmp"	1000	"white"	3	"TOO SLOW"	"tool1.bmp"	"tool"	0	"a"	""	0	NA	4.4	5.2
100	1	1	3	1	5	"toolLeft"	1	"WITproc"	"a"	"l"	2	"WIT"	"no"	85	"a"	"blackFace7.bmp"	1200	"black"	2	"+"	"tool4.bmp"	"tool"	1	"a"	"a"	453	NA	4.4	5.2
100	1	1	3	1	5	"toolLeft"	1	"WITproc"	"a"	"l"	2	"WIT"	"no"	86	"a"	"whiteFace8.bmp"	800	"white"	2	"+"	"tool3.bmp"	"tool"	1	"a"	"a"	356	NA	4.4	5.2
100	1	1	3	1	5	"toolLeft"	1	"WITproc"	"a"	"l"	2	"WIT"	"no"	87	"l"	"whiteFace8.bmp"	1000	"white"	2	"+"	"weapon3.bmp"	"weapon"	1	"l"	"l"	396	NA	4.4	5.2
100	1	1	3	1	5	"toolLeft"	1	"WITproc"	"a"	"l"	2	"WIT"	"no"	88	"a"	"whiteFace6.bmp"	800	"white"	2	"+"	"tool3.bmp"	"tool"	1	"a"	"a"	267	NA	4.4	5.2
100	1	1	3	1	5	"toolLeft"	1	"WITproc"	"a"	"l"	2	"WIT"	"no"	89	"a"	"whiteFace2.bmp"	1200	"white"	2	"+"	"tool2.bmp"	"tool"	1	"a"	"a"	370	NA	4.4	5.2
100	1	1	3	1	5	"toolLeft"	1	"WITproc"	"a"	"l"	2	"WIT"	"no"	90	"l"	"blackFace7.bmp"	1000	"black"	2	"+"	"weapon2.bmp"	"weapon"	1	"l"	"l"	314	NA	4.4	5.2
100	1	1	3	1	5	"toolLeft"	1	"WITproc"	"a"	"l"	2	"WIT"	"no"	91	"l"	"blackFace6.bmp"	1200	"black"	1	"+"	"weapon1.bmp"	"weapon"	0	"l"	"a"	336	NA	4.4	5.2
100	1	1	3	1	5	"toolLeft"	1	"WITproc"	"a"	"l"	2	"WIT"	"no"	92	"l"	"blackFace4.bmp"	800	"black"	2	"+"	"weapon2.bmp"	"weapon"	1	"l"	"l"	352	NA	4.4	5.2
100	1	1	3	1	5	"toolLeft"	1	"WITproc"	"a"	"l"	2	"WIT"	"no"	93	"a"	"whiteFace3.bmp"	800	"white"	2	"+"	"tool4.bmp"	"tool"	1	"a"	"a"	471	NA	4.4	5.2
100	1	1	3	1	5	"toolLeft"	1	"WITproc"	"a"	"l"	2	"WIT"	"no"	94	"l"	"blackFace2.bmp"	1200	"black"	2	"+"	"weapon2.bmp"	"weapon"	1	"l"	"l"	494	NA	4.4	5.2
100	1	1	3	1	5	"toolLeft"	1	"WITproc"	"a"	"l"	2	"WIT"	"no"	95	"l"	"blackFace8.bmp"	1000	"black"	2	"+"	"weapon1.bmp"	"weapon"	1	"l"	"l"	462	NA	4.4	5.2
100	1	1	3	1	5	"toolLeft"	1	"WITproc"	"a"	"l"	2	"WIT"	"no"	96	"l"	"whiteFace8.bmp"	1000	"white"	2	"+"	"weapon4.bmp"	"weapon"	1	"l"	"l"	429	NA	4.4	5.2
100	1	1	3	1	5	"toolLeft"	1	"WITproc"	"a"	"l"	2	"WIT"	"no"	97	"a"	"blackFace8.bmp"	800	"black"	3	"TOO SLOW"	"tool2.bmp"	"tool"	0	"a"	""	0	NA	4.4	5.2
100	1	1	3	1	5	"toolLeft"	1	"WITproc"	"a"	"l"	2	"WIT"	"no"	98	"l"	"whiteFace5.bmp"	1200	"white"	2	"+"	"weapon3.bmp"	"weapon"	1	"l"	"l"	391	NA	4.4	5.2
100	1	1	3	1	5	"toolLeft"	1	"WITproc"	"a"	"l"	2	"WIT"	"no"	99	"a"	"blackFace6.bmp"	1000	"black"	1	"+"	"tool3.bmp"	"tool"	0	"a"	"l"	391	NA	4.4	5.2
100	1	1	3	1	5	"toolLeft"	1	"WITproc"	"a"	"l"	2	"WIT"	"no"	100	"a"	"whiteFace7.bmp"	800	"white"	3	"TOO SLOW"	"tool1.bmp"	"tool"	0	"a"	""	0	NA	4.4	5.2
100	1	1	3	1	5	"toolLeft"	1	"WITproc"	"a"	"l"	2	"WIT"	"no"	101	"l"	"blackFace1.bmp"	1200	"black"	2	"+"	"weapon1.bmp"	"weapon"	1	"l"	"l"	461	NA	4.4	5.2
100	1	1	3	1	5	"toolLeft"	1	"WITproc"	"a"	"l"	2	"WIT"	"no"	102	"a"	"blackFace1.bmp"	800	"black"	2	"+"	"tool3.bmp"	"tool"	1	"a"	"a"	420	NA	4.4	5.2
100	1	1	3	1	5	"toolLeft"	1	"WITproc"	"a"	"l"	2	"WIT"	"no"	103	"l"	"whiteFace8.bmp"	1200	"white"	2	"+"	"weapon1.bmp"	"weapon"	1	"l"	"l"	380	NA	4.4	5.2
100	1	1	3	1	5	"toolLeft"	1	"WITproc"	"a"	"l"	2	"WIT"	"no"	104	"a"	"whiteFace1.bmp"	1000	"white"	2	"+"	"tool4.bmp"	"tool"	1	"a"	"a"	267	NA	4.4	5.2
100	1	1	3	1	5	"toolLeft"	1	"WITproc"	"a"	"l"	2	"WIT"	"no"	105	"a"	"blackFace5.bmp"	1000	"black"	2	"+"	"tool2.bmp"	"tool"	1	"a"	"a"	410	NA	4.4	5.2
100	1	1	3	1	5	"toolLeft"	1	"WITproc"	"a"	"l"	2	"WIT"	"no"	106	"a"	"whiteFace2.bmp"	800	"white"	2	"+"	"tool3.bmp"	"tool"	1	"a"	"a"	338	NA	4.4	5.2
100	1	1	3	1	5	"toolLeft"	1	"WITproc"	"a"	"l"	2	"WIT"	"no"	107	"l"	"blackFace5.bmp"	1200	"black"	2	"+"	"weapon1.bmp"	"weapon"	1	"l"	"l"	264	NA	4.4	5.2
100	1	1	3	1	5	"toolLeft"	1	"WITproc"	"a"	"l"	2	"WIT"	"no"	108	"l"	"blackFace2.bmp"	1200	"black"	1	"+"	"weapon3.bmp"	"weapon"	0	"l"	"a"	360	NA	4.4	5.2
100	1	1	3	1	5	"toolLeft"	1	"WITproc"	"a"	"l"	2	"WIT"	"no"	109	"l"	"whiteFace4.bmp"	1000	"white"	2	"+"	"weapon1.bmp"	"weapon"	1	"l"	"l"	439	NA	4.4	5.2
100	1	1	3	1	5	"toolLeft"	1	"WITproc"	"a"	"l"	2	"WIT"	"no"	110	"a"	"blackFace2.bmp"	800	"black"	2	"+"	"tool2.bmp"	"tool"	1	"a"	"a"	422	NA	4.4	5.2
100	1	1	3	1	5	"toolLeft"	1	"WITproc"	"a"	"l"	2	"WIT"	"no"	111	"a"	"whiteFace1.bmp"	1200	"white"	2	"+"	"tool2.bmp"	"tool"	1	"a"	"a"	446	NA	4.4	5.2
100	1	1	3	1	5	"toolLeft"	1	"WITproc"	"a"	"l"	2	"WIT"	"no"	112	"a"	"whiteFace7.bmp"	1000	"white"	2	"+"	"tool2.bmp"	"tool"	1	"a"	"a"	453	NA	4.4	5.2
100	1	1	3	1	5	"toolLeft"	1	"WITproc"	"a"	"l"	2	"WIT"	"no"	113	"a"	"blackFace1.bmp"	800	"black"	1	"+"	"tool2.bmp"	"tool"	0	"a"	"l"	373	NA	4.4	5.2
100	1	1	3	1	5	"toolLeft"	1	"WITproc"	"a"	"l"	2	"WIT"	"no"	114	"l"	"whiteFace8.bmp"	1200	"white"	1	"+"	"weapon2.bmp"	"weapon"	0	"l"	"a"	444	NA	4.4	5.2
100	1	1	3	1	5	"toolLeft"	1	"WITproc"	"a"	"l"	2	"WIT"	"no"	115	"l"	"whiteFace1.bmp"	1000	"white"	2	"+"	"weapon2.bmp"	"weapon"	1	"l"	"l"	459	NA	4.4	5.2
100	1	1	3	1	5	"toolLeft"	1	"WITproc"	"a"	"l"	2	"WIT"	"no"	116	"l"	"whiteFace7.bmp"	800	"white"	2	"+"	"weapon3.bmp"	"weapon"	1	"l"	"l"	427	NA	4.4	5.2
100	1	1	3	1	5	"toolLeft"	1	"WITproc"	"a"	"l"	2	"WIT"	"no"	117	"a"	"blackFace7.bmp"	1200	"black"	2	"+"	"tool3.bmp"	"tool"	1	"a"	"a"	450	NA	4.4	5.2
100	1	1	3	1	5	"toolLeft"	1	"WITproc"	"a"	"l"	2	"WIT"	"no"	118	"l"	"blackFace6.bmp"	1000	"black"	2	"+"	"weapon4.bmp"	"weapon"	1	"l"	"l"	282	NA	4.4	5.2
100	1	1	3	1	5	"toolLeft"	1	"WITproc"	"a"	"l"	2	"WIT"	"no"	119	"l"	"blackFace1.bmp"	800	"black"	1	"+"	"weapon2.bmp"	"weapon"	0	"l"	"a"	249	NA	4.4	5.2
100	1	1	3	1	5	"toolLeft"	1	"WITproc"	"a"	"l"	2	"WIT"	"no"	120	"a"	"blackFace8.bmp"	800	"black"	2	"+"	"tool4.bmp"	"tool"	1	"a"	"a"	384	NA	4.4	5.2
100	1	1	3	1	5	"toolLeft"	1	"WITproc"	"a"	"l"	2	"WIT"	"no"	121	"l"	"whiteFace2.bmp"	1000	"white"	1	"+"	"weapon2.bmp"	"weapon"	0	"l"	"a"	368	NA	4.4	5.2
100	1	1	3	1	5	"toolLeft"	1	"WITproc"	"a"	"l"	2	"WIT"	"no"	122	"l"	"blackFace3.bmp"	1200	"black"	2	"+"	"weapon1.bmp"	"weapon"	1	"l"	"l"	343	NA	4.4	5.2
100	1	1	3	1	5	"toolLeft"	1	"WITproc"	"a"	"l"	2	"WIT"	"no"	123	"a"	"whiteFace3.bmp"	1200	"white"	2	"+"	"tool3.bmp"	"tool"	1	"a"	"a"	326	NA	4.4	5.2
100	1	1	3	1	5	"toolLeft"	1	"WITproc"	"a"	"l"	2	"WIT"	"no"	124	"a"	"blackFace3.bmp"	800	"black"	2	"+"	"tool3.bmp"	"tool"	1	"a"	"a"	389	NA	4.4	5.2
100	1	1	3	1	5	"toolLeft"	1	"WITproc"	"a"	"l"	2	"WIT"	"no"	125	"l"	"whiteFace7.bmp"	1000	"white"	2	"+"	"weapon2.bmp"	"weapon"	1	"l"	"l"	420	NA	4.4	5.2
100	1	1	3	1	5	"toolLeft"	1	"WITproc"	"a"	"l"	2	"WIT"	"no"	126	"l"	"blackFace3.bmp"	800	"black"	3	"TOO SLOW"	"weapon4.bmp"	"weapon"	0	"l"	""	0	NA	4.4	5.2
100	1	1	3	1	5	"toolLeft"	1	"WITproc"	"a"	"l"	2	"WIT"	"no"	127	"l"	"whiteFace4.bmp"	1200	"white"	2	"+"	"weapon3.bmp"	"weapon"	1	"l"	"l"	386	NA	4.4	5.2
100	1	1	3	1	5	"toolLeft"	1	"WITproc"	"a"	"l"	2	"WIT"	"no"	128	"l"	"whiteFace1.bmp"	1000	"white"	2	"+"	"weapon4.bmp"	"weapon"	1	"l"	"l"	297	NA	4.4	5.2
100	1	1	3	1	5	"toolLeft"	1	"WITproc"	"a"	"l"	2	"WIT"	"no"	129	"a"	"whiteFace4.bmp"	1200	"white"	2	"+"	"tool3.bmp"	"tool"	1	"a"	"a"	360	NA	4.4	5.2
100	1	1	3	1	5	"toolLeft"	1	"WITproc"	"a"	"l"	2	"WIT"	"no"	130	"l"	"blackFace2.bmp"	1000	"black"	2	"+"	"weapon3.bmp"	"weapon"	1	"l"	"l"	255	NA	4.4	5.2
100	1	1	3	1	5	"toolLeft"	1	"WITproc"	"a"	"l"	2	"WIT"	"no"	131	"l"	"whiteFace5.bmp"	800	"white"	2	"+"	"weapon2.bmp"	"weapon"	1	"l"	"l"	431	NA	4.4	5.2
100	1	1	3	1	5	"toolLeft"	1	"WITproc"	"a"	"l"	2	"WIT"	"no"	132	"l"	"blackFace5.bmp"	1200	"black"	2	"+"	"weapon3.bmp"	"weapon"	1	"l"	"l"	358	NA	4.4	5.2
100	1	1	3	1	5	"toolLeft"	1	"WITproc"	"a"	"l"	2	"WIT"	"no"	133	"a"	"whiteFace2.bmp"	800	"white"	2	"+"	"tool4.bmp"	"tool"	1	"a"	"a"	461	NA	4.4	5.2
100	1	1	3	1	5	"toolLeft"	1	"WITproc"	"a"	"l"	2	"WIT"	"no"	134	"a"	"whiteFace7.bmp"	1000	"white"	2	"+"	"tool3.bmp"	"tool"	1	"a"	"a"	404	NA	4.4	5.2
100	1	1	3	1	5	"toolLeft"	1	"WITproc"	"a"	"l"	2	"WIT"	"no"	135	"a"	"blackFace7.bmp"	1000	"black"	2	"+"	"tool1.bmp"	"tool"	1	"a"	"a"	427	NA	4.4	5.2
100	1	1	3	1	5	"toolLeft"	1	"WITproc"	"a"	"l"	2	"WIT"	"no"	136	"a"	"blackFace3.bmp"	800	"black"	2	"+"	"tool2.bmp"	"tool"	1	"a"	"a"	411	NA	4.4	5.2
100	1	1	3	1	5	"toolLeft"	1	"WITproc"	"a"	"l"	2	"WIT"	"no"	137	"a"	"blackFace3.bmp"	1200	"black"	2	"+"	"tool3.bmp"	"tool"	1	"a"	"a"	450	NA	4.4	5.2
100	1	1	3	1	5	"toolLeft"	1	"WITproc"	"a"	"l"	2	"WIT"	"no"	138	"a"	"blackFace1.bmp"	800	"black"	1	"+"	"tool1.bmp"	"tool"	0	"a"	"l"	394	NA	4.4	5.2
100	1	1	3	1	5	"toolLeft"	1	"WITproc"	"a"	"l"	2	"WIT"	"no"	139	"l"	"whiteFace3.bmp"	1200	"white"	1	"+"	"weapon1.bmp"	"weapon"	0	"l"	"a"	305	NA	4.4	5.2
100	1	1	3	1	5	"toolLeft"	1	"WITproc"	"a"	"l"	2	"WIT"	"no"	140	"a"	"whiteFace7.bmp"	1000	"white"	2	"+"	"tool2.bmp"	"tool"	1	"a"	"a"	272	NA	4.4	5.2
100	1	1	3	1	5	"toolLeft"	1	"WITproc"	"a"	"l"	2	"WIT"	"no"	141	"a"	"whiteFace8.bmp"	800	"white"	3	"TOO SLOW"	"tool1.bmp"	"tool"	0	"a"	""	0	NA	4.4	5.2
100	1	1	3	1	5	"toolLeft"	1	"WITproc"	"a"	"l"	2	"WIT"	"no"	142	"l"	"whiteFace1.bmp"	1200	"white"	2	"+"	"weapon1.bmp"	"weapon"	1	"l"	"l"	399	NA	4.4	5.2
100	1	1	3	1	5	"toolLeft"	1	"WITproc"	"a"	"l"	2	"WIT"	"no"	143	"l"	"whiteFace8.bmp"	1000	"white"	1	"+"	"weapon2.bmp"	"weapon"	0	"l"	"a"	382	NA	4.4	5.2
100	1	1	3	1	5	"toolLeft"	1	"WITproc"	"a"	"l"	2	"WIT"	"no"	144	"l"	"whiteFace4.bmp"	1200	"white"	3	"TOO SLOW"	"weapon2.bmp"	"weapon"	0	"l"	""	0	NA	4.4	5.2
100	1	1	3	1	5	"toolLeft"	1	"WITproc"	"a"	"l"	2	"WIT"	"no"	145	"l"	"blackFace5.bmp"	1000	"black"	2	"+"	"weapon1.bmp"	"weapon"	1	"l"	"l"	292	NA	4.4	5.2
100	1	1	3	1	5	"toolLeft"	1	"WITproc"	"a"	"l"	2	"WIT"	"no"	146	"a"	"whiteFace6.bmp"	800	"white"	1	"+"	"tool1.bmp"	"tool"	0	"a"	"l"	331	NA	4.4	5.2
100	1	1	3	1	5	"toolLeft"	1	"WITproc"	"a"	"l"	2	"WIT"	"no"	147	"l"	"blackFace5.bmp"	1000	"black"	2	"+"	"weapon4.bmp"	"weapon"	1	"l"	"l"	378	NA	4.4	5.2
100	1	1	3	1	5	"toolLeft"	1	"WITproc"	"a"	"l"	2	"WIT"	"no"	148	"l"	"blackFace8.bmp"	1200	"black"	2	"+"	"weapon3.bmp"	"weapon"	1	"l"	"l"	362	NA	4.4	5.2
100	1	1	3	1	5	"toolLeft"	1	"WITproc"	"a"	"l"	2	"WIT"	"no"	149	"a"	"blackFace2.bmp"	800	"black"	2	"+"	"tool4.bmp"	"tool"	1	"a"	"a"	425	NA	4.4	5.2
100	1	1	3	1	5	"toolLeft"	1	"WITproc"	"a"	"l"	2	"WIT"	"no"	150	"l"	"whiteFace6.bmp"	800	"white"	2	"+"	"weapon3.bmp"	"weapon"	1	"l"	"l"	305	NA	4.4	5.2
100	1	1	3	1	5	"toolLeft"	1	"WITproc"	"a"	"l"	2	"WIT"	"no"	151	"a"	"whiteFace5.bmp"	1000	"white"	2	"+"	"tool3.bmp"	"tool"	1	"a"	"a"	344	NA	4.4	5.2
100	1	1	3	1	5	"toolLeft"	1	"WITproc"	"a"	"l"	2	"WIT"	"no"	152	"l"	"whiteFace4.bmp"	1200	"white"	2	"+"	"weapon4.bmp"	"weapon"	1	"l"	"l"	359	NA	4.4	5.2
100	1	1	3	1	5	"toolLeft"	1	"WITproc"	"a"	"l"	2	"WIT"	"no"	153	"a"	"blackFace4.bmp"	1000	"black"	2	"+"	"tool3.bmp"	"tool"	1	"a"	"a"	391	NA	4.4	5.2
100	1	1	3	1	5	"toolLeft"	1	"WITproc"	"a"	"l"	2	"WIT"	"no"	154	"l"	"blackFace8.bmp"	1200	"black"	2	"+"	"weapon4.bmp"	"weapon"	1	"l"	"l"	294	NA	4.4	5.2
100	1	1	3	1	5	"toolLeft"	1	"WITproc"	"a"	"l"	2	"WIT"	"no"	155	"a"	"blackFace5.bmp"	800	"black"	2	"+"	"tool1.bmp"	"tool"	1	"a"	"a"	470	NA	4.4	5.2
100	1	1	3	1	5	"toolLeft"	1	"WITproc"	"a"	"l"	2	"WIT"	"no"	156	"l"	"whiteFace7.bmp"	1200	"white"	2	"+"	"weapon3.bmp"	"weapon"	1	"l"	"l"	317	NA	4.4	5.2
100	1	1	3	1	5	"toolLeft"	1	"WITproc"	"a"	"l"	2	"WIT"	"no"	157	"l"	"blackFace2.bmp"	800	"black"	1	"+"	"weapon1.bmp"	"weapon"	0	"l"	"a"	292	NA	4.4	5.2
100	1	1	3	1	5	"toolLeft"	1	"WITproc"	"a"	"l"	2	"WIT"	"no"	158	"a"	"whiteFace3.bmp"	1000	"white"	1	"+"	"tool3.bmp"	"tool"	0	"a"	"l"	276	NA	4.4	5.2
100	1	1	3	1	5	"toolLeft"	1	"WITproc"	"a"	"l"	2	"WIT"	"no"	159	"l"	"whiteFace1.bmp"	1000	"white"	2	"+"	"weapon2.bmp"	"weapon"	1	"l"	"l"	307	NA	4.4	5.2
100	1	1	3	1	5	"toolLeft"	1	"WITproc"	"a"	"l"	2	"WIT"	"no"	160	"l"	"blackFace3.bmp"	800	"black"	1	"+"	"weapon2.bmp"	"weapon"	0	"l"	"a"	219	NA	4.4	5.2
100	1	1	3	1	5	"toolLeft"	1	"WITproc"	"a"	"l"	2	"WIT"	"no"	161	"l"	"blackFace1.bmp"	1200	"black"	2	"+"	"weapon1.bmp"	"weapon"	1	"l"	"l"	393	NA	4.4	5.2
100	1	1	3	1	5	"toolLeft"	1	"WITproc"	"a"	"l"	2	"WIT"	"no"	162	"a"	"blackFace2.bmp"	800	"black"	1	"+"	"tool3.bmp"	"tool"	0	"a"	"l"	344	NA	4.4	5.2
100	1	1	3	1	5	"toolLeft"	1	"WITproc"	"a"	"l"	2	"WIT"	"no"	163	"a"	"blackFace4.bmp"	1200	"black"	3	"TOO SLOW"	"tool2.bmp"	"tool"	0	"a"	""	0	NA	4.4	5.2
100	1	1	3	1	5	"toolLeft"	1	"WITproc"	"a"	"l"	2	"WIT"	"no"	164	"a"	"whiteFace6.bmp"	1000	"white"	2	"+"	"tool4.bmp"	"tool"	1	"a"	"a"	471	NA	4.4	5.2
100	1	1	3	1	5	"toolLeft"	1	"WITproc"	"a"	"l"	2	"WIT"	"no"	165	"a"	"whiteFace3.bmp"	1000	"white"	1	"+"	"tool1.bmp"	"tool"	0	"a"	"l"	318	NA	4.4	5.2
100	1	1	3	1	5	"toolLeft"	1	"WITproc"	"a"	"l"	2	"WIT"	"no"	166	"a"	"whiteFace5.bmp"	800	"white"	2	"+"	"tool1.bmp"	"tool"	1	"a"	"a"	430	NA	4.4	5.2
100	1	1	3	1	5	"toolLeft"	1	"WITproc"	"a"	"l"	2	"WIT"	"no"	167	"l"	"blackFace2.bmp"	1200	"black"	3	"TOO SLOW"	"weapon2.bmp"	"weapon"	0	"l"	""	0	NA	4.4	5.2
100	1	1	3	1	5	"toolLeft"	1	"WITproc"	"a"	"l"	2	"WIT"	"no"	168	"a"	"blackFace2.bmp"	1200	"black"	2	"+"	"tool2.bmp"	"tool"	1	"a"	"a"	452	NA	4.4	5.2
100	1	1	3	1	5	"toolLeft"	1	"WITproc"	"a"	"l"	2	"WIT"	"no"	169	"a"	"whiteFace2.bmp"	800	"white"	2	"+"	"tool2.bmp"	"tool"	1	"a"	"a"	371	NA	4.4	5.2
100	1	1	3	1	5	"toolLeft"	1	"WITproc"	"a"	"l"	2	"WIT"	"no"	170	"a"	"blackFace8.bmp"	1000	"black"	1	"+"	"tool1.bmp"	"tool"	0	"a"	"l"	379	NA	4.4	5.2
100	1	1	3	1	5	"toolLeft"	1	"WITproc"	"a"	"l"	2	"WIT"	"no"	171	"l"	"whiteFace6.bmp"	800	"white"	2	"+"	"weapon4.bmp"	"weapon"	1	"l"	"l"	346	NA	4.4	5.2
100	1	1	3	1	5	"toolLeft"	1	"WITproc"	"a"	"l"	2	"WIT"	"no"	172	"l"	"blackFace6.bmp"	1000	"black"	2	"+"	"weapon1.bmp"	"weapon"	1	"l"	"l"	457	NA	4.4	5.2
100	1	1	3	1	5	"toolLeft"	1	"WITproc"	"a"	"l"	2	"WIT"	"no"	173	"l"	"blackFace2.bmp"	1200	"black"	2	"+"	"weapon4.bmp"	"weapon"	1	"l"	"l"	345	NA	4.4	5.2
100	1	1	3	1	5	"toolLeft"	1	"WITproc"	"a"	"l"	2	"WIT"	"no"	174	"l"	"whiteFace8.bmp"	800	"white"	1	"+"	"weapon1.bmp"	"weapon"	0	"l"	"a"	392	NA	4.4	5.2
100	1	1	3	1	5	"toolLeft"	1	"WITproc"	"a"	"l"	2	"WIT"	"no"	175	"l"	"blackFace5.bmp"	1200	"black"	2	"+"	"weapon2.bmp"	"weapon"	1	"l"	"l"	416	NA	4.4	5.2
100	1	1	3	1	5	"toolLeft"	1	"WITproc"	"a"	"l"	2	"WIT"	"no"	176	"l"	"blackFace7.bmp"	1000	"black"	2	"+"	"weapon3.bmp"	"weapon"	1	"l"	"l"	327	NA	4.4	5.2
100	1	1	3	1	5	"toolLeft"	1	"WITproc"	"a"	"l"	2	"WIT"	"no"	177	"l"	"whiteFace4.bmp"	1000	"white"	2	"+"	"weapon3.bmp"	"weapon"	1	"l"	"l"	334	NA	4.4	5.2
100	1	1	3	1	5	"toolLeft"	1	"WITproc"	"a"	"l"	2	"WIT"	"no"	178	"a"	"blackFace6.bmp"	800	"black"	1	"+"	"tool4.bmp"	"tool"	0	"a"	"l"	294	NA	4.4	5.2
100	1	1	3	1	5	"toolLeft"	1	"WITproc"	"a"	"l"	2	"WIT"	"no"	179	"a"	"whiteFace3.bmp"	1200	"white"	2	"+"	"tool2.bmp"	"tool"	1	"a"	"a"	420	NA	4.4	5.2
100	1	1	3	1	5	"toolLeft"	1	"WITproc"	"a"	"l"	2	"WIT"	"no"	180	"l"	"whiteFace5.bmp"	1000	"white"	2	"+"	"weapon1.bmp"	"weapon"	1	"l"	"l"	476	NA	4.4	5.2
100	1	1	3	1	5	"toolLeft"	1	"WITproc"	"a"	"l"	2	"WIT"	"no"	181	"l"	"whiteFace7.bmp"	800	"white"	2	"+"	"weapon4.bmp"	"weapon"	1	"l"	"l"	411	NA	4.4	5.2
100	1	1	3	1	5	"toolLeft"	1	"WITproc"	"a"	"l"	2	"WIT"	"no"	182	"l"	"blackFace6.bmp"	1200	"black"	2	"+"	"weapon3.bmp"	"weapon"	1	"l"	"l"	354	NA	4.4	5.2
100	1	1	3	1	5	"toolLeft"	1	"WITproc"	"a"	"l"	2	"WIT"	"no"	183	"a"	"blackFace6.bmp"	800	"black"	2	"+"	"tool2.bmp"	"tool"	1	"a"	"a"	418	NA	4.4	5.2
100	1	1	3	1	5	"toolLeft"	1	"WITproc"	"a"	"l"	2	"WIT"	"no"	184	"a"	"whiteFace6.bmp"	1200	"white"	1	"+"	"tool3.bmp"	"tool"	0	"a"	"l"	393	NA	4.4	5.2
100	1	1	3	1	5	"toolLeft"	1	"WITproc"	"a"	"l"	2	"WIT"	"no"	185	"a"	"whiteFace1.bmp"	1000	"white"	1	"+"	"tool1.bmp"	"tool"	0	"a"	"l"	425	NA	4.4	5.2
100	1	1	3	1	5	"toolLeft"	1	"WITproc"	"a"	"l"	2	"WIT"	"no"	186	"a"	"whiteFace1.bmp"	800	"white"	2	"+"	"tool2.bmp"	"tool"	1	"a"	"a"	464	NA	4.4	5.2
100	1	1	3	1	5	"toolLeft"	1	"WITproc"	"a"	"l"	2	"WIT"	"no"	187	"a"	"blackFace7.bmp"	1000	"black"	2	"+"	"tool2.bmp"	"tool"	1	"a"	"a"	407	NA	4.4	5.2
100	1	1	3	1	5	"toolLeft"	1	"WITproc"	"a"	"l"	2	"WIT"	"no"	188	"a"	"blackFace7.bmp"	1200	"black"	1	"+"	"tool3.bmp"	"tool"	0	"a"	"l"	423	NA	4.4	5.2
100	1	1	3	1	5	"toolLeft"	1	"WITproc"	"a"	"l"	2	"WIT"	"no"	189	"l"	"whiteFace2.bmp"	1000	"white"	2	"+"	"weapon4.bmp"	"weapon"	1	"l"	"l"	278	NA	4.4	5.2
100	1	1	3	1	5	"toolLeft"	1	"WITproc"	"a"	"l"	2	"WIT"	"no"	190	"l"	"whiteFace1.bmp"	1200	"white"	1	"+"	"weapon3.bmp"	"weapon"	0	"l"	"a"	349	NA	4.4	5.2
100	1	1	3	1	5	"toolLeft"	1	"WITproc"	"a"	"l"	2	"WIT"	"no"	191	"a"	"blackFace7.bmp"	800	"black"	3	"TOO SLOW"	"tool4.bmp"	"tool"	0	"a"	""	0	NA	4.4	5.2
100	1	1	3	1	5	"toolLeft"	1	"WITproc"	"a"	"l"	2	"WIT"	"no"	192	"l"	"blackFace8.bmp"	800	"black"	2	"+"	"weapon1.bmp"	"weapon"	1	"l"	"l"	396	NA	4.4	5.2
101	1	2	2	2	5	"toolRight"	1	"WITproc"	"l"	"a"	2	"WIT"	"no"	1	"l"	"whiteFace1.bmp"	1000	"white"	2	"+"	"tool3.bmp"	"tool"	1	"l"	"l"	377	NA	NA	NA
101	1	2	2	2	5	"toolRight"	1	"WITproc"	"l"	"a"	2	"WIT"	"no"	2	"a"	"whiteFace6.bmp"	1200	"white"	2	"+"	"weapon3.bmp"	"weapon"	1	"a"	"a"	400	NA	NA	NA
101	1	2	2	2	5	"toolRight"	1	"WITproc"	"l"	"a"	2	"WIT"	"no"	3	"a"	"blackFace8.bmp"	800	"black"	2	"+"	"weapon1.bmp"	"weapon"	1	"a"	"a"	472	NA	NA	NA
101	1	2	2	2	5	"toolRight"	1	"WITproc"	"l"	"a"	2	"WIT"	"no"	4	"a"	"whiteFace1.bmp"	1000	"white"	2	"+"	"weapon3.bmp"	"weapon"	1	"a"	"a"	438	NA	NA	NA
101	1	2	2	2	5	"toolRight"	1	"WITproc"	"l"	"a"	2	"WIT"	"no"	5	"l"	"whiteFace2.bmp"	1200	"white"	2	"+"	"tool4.bmp"	"tool"	1	"l"	"l"	325	NA	NA	NA
101	1	2	2	2	5	"toolRight"	1	"WITproc"	"l"	"a"	2	"WIT"	"no"	6	"a"	"whiteFace8.bmp"	1200	"white"	2	"+"	"weapon3.bmp"	"weapon"	1	"a"	"a"	397	NA	NA	NA
101	1	2	2	2	5	"toolRight"	1	"WITproc"	"l"	"a"	2	"WIT"	"no"	7	"a"	"blackFace3.bmp"	1000	"black"	2	"+"	"weapon2.bmp"	"weapon"	1	"a"	"a"	444	NA	NA	NA
101	1	2	2	2	5	"toolRight"	1	"WITproc"	"l"	"a"	2	"WIT"	"no"	8	"l"	"blackFace6.bmp"	800	"black"	2	"+"	"tool1.bmp"	"tool"	1	"l"	"l"	435	NA	NA	NA
101	1	2	2	2	5	"toolRight"	1	"WITproc"	"l"	"a"	2	"WIT"	"no"	9	"a"	"blackFace8.bmp"	800	"black"	2	"+"	"weapon2.bmp"	"weapon"	1	"a"	"a"	379	NA	NA	NA
101	1	2	2	2	5	"toolRight"	1	"WITproc"	"l"	"a"	2	"WIT"	"no"	10	"l"	"whiteFace5.bmp"	1200	"white"	2	"+"	"tool2.bmp"	"tool"	1	"l"	"l"	378	NA	NA	NA
101	1	2	2	2	5	"toolRight"	1	"WITproc"	"l"	"a"	2	"WIT"	"no"	11	"a"	"whiteFace5.bmp"	1000	"white"	2	"+"	"weapon3.bmp"	"weapon"	1	"a"	"a"	346	NA	NA	NA
101	1	2	2	2	5	"toolRight"	1	"WITproc"	"l"	"a"	2	"WIT"	"no"	12	"l"	"whiteFace4.bmp"	800	"white"	2	"+"	"tool4.bmp"	"tool"	1	"l"	"l"	465	NA	NA	NA
101	1	2	2	2	5	"toolRight"	1	"WITproc"	"l"	"a"	2	"WIT"	"no"	13	"a"	"blackFace6.bmp"	1200	"black"	2	"+"	"weapon3.bmp"	"weapon"	1	"a"	"a"	496	NA	NA	NA
101	1	2	2	2	5	"toolRight"	1	"WITproc"	"l"	"a"	2	"WIT"	"no"	14	"l"	"blackFace1.bmp"	1000	"black"	2	"+"	"tool3.bmp"	"tool"	1	"l"	"l"	440	NA	NA	NA
101	1	2	2	2	5	"toolRight"	1	"WITproc"	"l"	"a"	2	"WIT"	"no"	15	"l"	"whiteFace3.bmp"	1000	"white"	1	"+"	"tool3.bmp"	"tool"	0	"l"	"a"	391	NA	NA	NA
101	1	2	2	2	5	"toolRight"	1	"WITproc"	"l"	"a"	2	"WIT"	"no"	16	"l"	"whiteFace7.bmp"	1200	"white"	3	"TOO SLOW"	"tool1.bmp"	"tool"	0	"l"	""	0	NA	NA	NA
101	1	2	2	2	5	"toolRight"	1	"WITproc"	"l"	"a"	2	"WIT"	"no"	17	"a"	"whiteFace7.bmp"	800	"white"	2	"+"	"weapon4.bmp"	"weapon"	1	"a"	"a"	381	NA	NA	NA
101	1	2	2	2	5	"toolRight"	1	"WITproc"	"l"	"a"	2	"WIT"	"no"	18	"l"	"whiteFace2.bmp"	1000	"white"	2	"+"	"tool3.bmp"	"tool"	1	"l"	"l"	412	NA	NA	NA
101	1	2	2	2	5	"toolRight"	1	"WITproc"	"l"	"a"	2	"WIT"	"no"	19	"a"	"whiteFace7.bmp"	800	"white"	2	"+"	"weapon1.bmp"	"weapon"	1	"a"	"a"	460	NA	NA	NA
101	1	2	2	2	5	"toolRight"	1	"WITproc"	"l"	"a"	2	"WIT"	"no"	20	"l"	"whiteFace7.bmp"	1200	"white"	2	"+"	"tool3.bmp"	"tool"	1	"l"	"l"	427	NA	NA	NA
101	1	2	2	2	5	"toolRight"	1	"WITproc"	"l"	"a"	2	"WIT"	"no"	21	"a"	"whiteFace6.bmp"	1200	"white"	1	"+"	"weapon2.bmp"	"weapon"	0	"a"	"l"	387	NA	NA	NA
101	1	2	2	2	5	"toolRight"	1	"WITproc"	"l"	"a"	2	"WIT"	"no"	22	"a"	"whiteFace1.bmp"	1000	"white"	2	"+"	"weapon4.bmp"	"weapon"	1	"a"	"a"	394	NA	NA	NA
101	1	2	2	2	5	"toolRight"	1	"WITproc"	"l"	"a"	2	"WIT"	"no"	23	"a"	"blackFace2.bmp"	800	"black"	3	"TOO SLOW"	"weapon2.bmp"	"weapon"	0	"a"	""	0	NA	NA	NA
101	1	2	2	2	5	"toolRight"	1	"WITproc"	"l"	"a"	2	"WIT"	"no"	24	"l"	"whiteFace1.bmp"	800	"white"	2	"+"	"tool1.bmp"	"tool"	1	"l"	"l"	488	NA	NA	NA
101	1	2	2	2	5	"toolRight"	1	"WITproc"	"l"	"a"	2	"WIT"	"no"	25	"a"	"whiteFace4.bmp"	1000	"white"	2	"+"	"weapon2.bmp"	"weapon"	1	"a"	"a"	495	NA	NA	NA
101	1	2	2	2	5	"toolRight"	1	"WITproc"	"l"	"a"	2	"WIT"	"no"	26	"a"	"blackFace6.bmp"	1200	"black"	2	"+"	"weapon4.bmp"	"weapon"	1	"a"	"a"	439	NA	NA	NA
101	1	2	2	2	5	"toolRight"	1	"WITproc"	"l"	"a"	2	"WIT"	"no"	27	"l"	"blackFace8.bmp"	1000	"black"	2	"+"	"tool2.bmp"	"tool"	1	"l"	"l"	406	NA	NA	NA
101	1	2	2	2	5	"toolRight"	1	"WITproc"	"l"	"a"	2	"WIT"	"no"	28	"a"	"blackFace7.bmp"	1200	"black"	2	"+"	"weapon3.bmp"	"weapon"	1	"a"	"a"	381	NA	NA	NA
101	1	2	2	2	5	"toolRight"	1	"WITproc"	"l"	"a"	2	"WIT"	"no"	29	"l"	"blackFace7.bmp"	800	"black"	2	"+"	"tool3.bmp"	"tool"	1	"l"	"l"	389	NA	NA	NA
101	1	2	2	2	5	"toolRight"	1	"WITproc"	"l"	"a"	2	"WIT"	"no"	30	"a"	"whiteFace1.bmp"	800	"white"	2	"+"	"weapon1.bmp"	"weapon"	1	"a"	"a"	372	NA	NA	NA
101	1	2	2	2	5	"toolRight"	1	"WITproc"	"l"	"a"	2	"WIT"	"no"	31	"a"	"blackFace1.bmp"	1200	"black"	2	"+"	"weapon4.bmp"	"weapon"	1	"a"	"a"	347	NA	NA	NA
101	1	2	2	2	5	"toolRight"	1	"WITproc"	"l"	"a"	2	"WIT"	"no"	32	"a"	"blackFace4.bmp"	1000	"black"	2	"+"	"weapon4.bmp"	"weapon"	1	"a"	"a"	387	NA	NA	NA
101	1	2	2	2	5	"toolRight"	1	"WITproc"	"l"	"a"	2	"WIT"	"no"	33	"a"	"whiteFace3.bmp"	1200	"white"	1	"+"	"weapon2.bmp"	"weapon"	0	"a"	"l"	322	NA	NA	NA
101	1	2	2	2	5	"toolRight"	1	"WITproc"	"l"	"a"	2	"WIT"	"no"	34	"l"	"blackFace8.bmp"	1000	"black"	2	"+"	"tool1.bmp"	"tool"	1	"l"	"l"	490	NA	NA	NA
101	1	2	2	2	5	"toolRight"	1	"WITproc"	"l"	"a"	2	"WIT"	"no"	35	"l"	"blackFace4.bmp"	800	"black"	2	"+"	"tool2.bmp"	"tool"	1	"l"	"l"	441	NA	NA	NA
101	1	2	2	2	5	"toolRight"	1	"WITproc"	"l"	"a"	2	"WIT"	"no"	36	"a"	"blackFace8.bmp"	1200	"black"	2	"+"	"weapon4.bmp"	"weapon"	1	"a"	"a"	335	NA	NA	NA
101	1	2	2	2	5	"toolRight"	1	"WITproc"	"l"	"a"	2	"WIT"	"no"	37	"a"	"blackFace8.bmp"	1000	"black"	2	"+"	"weapon3.bmp"	"weapon"	1	"a"	"a"	431	NA	NA	NA
101	1	2	2	2	5	"toolRight"	1	"WITproc"	"l"	"a"	2	"WIT"	"no"	38	"l"	"blackFace3.bmp"	800	"black"	2	"+"	"tool1.bmp"	"tool"	1	"l"	"l"	350	NA	NA	NA
101	1	2	2	2	5	"toolRight"	1	"WITproc"	"l"	"a"	2	"WIT"	"no"	39	"a"	"whiteFace2.bmp"	800	"white"	2	"+"	"weapon1.bmp"	"weapon"	1	"a"	"a"	445	NA	NA	NA
101	1	2	2	2	5	"toolRight"	1	"WITproc"	"l"	"a"	2	"WIT"	"no"	40	"l"	"blackFace2.bmp"	1000	"black"	2	"+"	"tool3.bmp"	"tool"	1	"l"	"l"	413	NA	NA	NA
101	1	2	2	2	5	"toolRight"	1	"WITproc"	"l"	"a"	2	"WIT"	"no"	41	"l"	"whiteFace6.bmp"	1200	"white"	3	"TOO SLOW"	"tool4.bmp"	"tool"	0	"l"	""	0	NA	NA	NA
101	1	2	2	2	5	"toolRight"	1	"WITproc"	"l"	"a"	2	"WIT"	"no"	42	"l"	"whiteFace6.bmp"	800	"white"	2	"+"	"tool3.bmp"	"tool"	1	"l"	"l"	403	NA	NA	NA
101	1	2	2	2	5	"toolRight"	1	"WITproc"	"l"	"a"	2	"WIT"	"no"	43	"a"	"blackFace7.bmp"	1200	"black"	2	"+"	"weapon2.bmp"	"weapon"	1	"a"	"a"	370	NA	NA	NA
101	1	2	2	2	5	"toolRight"	1	"WITproc"	"l"	"a"	2	"WIT"	"no"	44	"l"	"blackFace1.bmp"	1000	"black"	2	"+"	"tool1.bmp"	"tool"	1	"l"	"l"	458	NA	NA	NA
101	1	2	2	2	5	"toolRight"	1	"WITproc"	"l"	"a"	2	"WIT"	"no"	45	"l"	"blackFace7.bmp"	800	"black"	2	"+"	"tool1.bmp"	"tool"	1	"l"	"l"	369	NA	NA	NA
101	1	2	2	2	5	"toolRight"	1	"WITproc"	"l"	"a"	2	"WIT"	"no"	46	"l"	"blackFace2.bmp"	1000	"black"	1	"+"	"tool1.bmp"	"tool"	0	"l"	"a"	400	NA	NA	NA
101	1	2	2	2	5	"toolRight"	1	"WITproc"	"l"	"a"	2	"WIT"	"no"	47	"l"	"whiteFace2.bmp"	1200	"white"	2	"+"	"tool2.bmp"	"tool"	1	"l"	"l"	408	NA	NA	NA
101	1	2	2	2	5	"toolRight"	1	"WITproc"	"l"	"a"	2	"WIT"	"no"	48	"l"	"blackFace3.bmp"	1000	"black"	2	"+"	"tool4.bmp"	"tool"	1	"l"	"l"	439	NA	NA	NA
101	1	2	2	2	5	"toolRight"	1	"WITproc"	"l"	"a"	2	"WIT"	"no"	49	"l"	"blackFace3.bmp"	800	"black"	2	"+"	"tool2.bmp"	"tool"	1	"l"	"l"	494	NA	NA	NA
101	1	2	2	2	5	"toolRight"	1	"WITproc"	"l"	"a"	2	"WIT"	"no"	50	"a"	"whiteFace3.bmp"	1200	"white"	1	"+"	"weapon4.bmp"	"weapon"	0	"a"	"l"	398	NA	NA	NA
101	1	2	2	2	5	"toolRight"	1	"WITproc"	"l"	"a"	2	"WIT"	"no"	51	"a"	"blackFace7.bmp"	1200	"black"	2	"+"	"weapon1.bmp"	"weapon"	1	"a"	"a"	405	NA	NA	NA
101	1	2	2	2	5	"toolRight"	1	"WITproc"	"l"	"a"	2	"WIT"	"no"	52	"l"	"blackFace6.bmp"	1000	"black"	2	"+"	"tool2.bmp"	"tool"	1	"l"	"l"	380	NA	NA	NA
101	1	2	2	2	5	"toolRight"	1	"WITproc"	"l"	"a"	2	"WIT"	"no"	53	"l"	"whiteFace5.bmp"	800	"white"	2	"+"	"tool4.bmp"	"tool"	1	"l"	"l"	436	NA	NA	NA
101	1	2	2	2	5	"toolRight"	1	"WITproc"	"l"	"a"	2	"WIT"	"no"	54	"a"	"whiteFace7.bmp"	1200	"white"	2	"+"	"weapon2.bmp"	"weapon"	1	"a"	"a"	387	NA	NA	NA
101	1	2	2	2	5	"toolRight"	1	"WITproc"	"l"	"a"	2	"WIT"	"no"	55	"l"	"blackFace1.bmp"	800	"black"	2	"+"	"tool2.bmp"	"tool"	1	"l"	"l"	427	NA	NA	NA
101	1	2	2	2	5	"toolRight"	1	"WITproc"	"l"	"a"	2	"WIT"	"no"	56	"a"	"blackFace5.bmp"	1000	"black"	2	"+"	"weapon3.bmp"	"weapon"	1	"a"	"a"	482	NA	NA	NA
101	1	2	2	2	5	"toolRight"	1	"WITproc"	"l"	"a"	2	"WIT"	"no"	57	"l"	"whiteFace7.bmp"	1200	"white"	2	"+"	"tool4.bmp"	"tool"	1	"l"	"l"	401	NA	NA	NA
101	1	2	2	2	5	"toolRight"	1	"WITproc"	"l"	"a"	2	"WIT"	"no"	58	"l"	"whiteFace5.bmp"	800	"white"	2	"+"	"tool3.bmp"	"tool"	1	"l"	"l"	417	NA	NA	NA
101	1	2	2	2	5	"toolRight"	1	"WITproc"	"l"	"a"	2	"WIT"	"no"	59	"a"	"whiteFace5.bmp"	1000	"white"	2	"+"	"weapon4.bmp"	"weapon"	1	"a"	"a"	328	NA	NA	NA
101	1	2	2	2	5	"toolRight"	1	"WITproc"	"l"	"a"	2	"WIT"	"no"	60	"a"	"blackFace6.bmp"	1000	"black"	2	"+"	"weapon2.bmp"	"weapon"	1	"a"	"a"	407	NA	NA	NA
101	1	2	2	2	5	"toolRight"	1	"WITproc"	"l"	"a"	2	"WIT"	"no"	61	"a"	"blackFace4.bmp"	800	"black"	2	"+"	"weapon2.bmp"	"weapon"	1	"a"	"a"	415	NA	NA	NA
101	1	2	2	2	5	"toolRight"	1	"WITproc"	"l"	"a"	2	"WIT"	"no"	62	"l"	"blackFace3.bmp"	1200	"black"	2	"+"	"tool3.bmp"	"tool"	1	"l"	"l"	334	NA	NA	NA
101	1	2	2	2	5	"toolRight"	1	"WITproc"	"l"	"a"	2	"WIT"	"no"	63	"a"	"whiteFace8.bmp"	800	"white"	2	"+"	"weapon4.bmp"	"weapon"	1	"a"	"a"	342	NA	NA	NA
101	1	2	2	2	5	"toolRight"	1	"WITproc"	"l"	"a"	2	"WIT"	"no"	64	"l"	"whiteFace3.bmp"	1200	"white"	2	"+"	"tool1.bmp"	"tool"	1	"l"	"l"	317	NA	NA	NA
101	1	2	2	2	5	"toolRight"	1	"WITproc"	"l"	"a"	2	"WIT"	"no"	65	"l"	"blackFace2.bmp"	1000	"black"	1	"+"	"tool4.bmp"	"tool"	0	"l"	"a"	372	NA	NA	NA
101	1	2	2	2	5	"toolRight"	1	"WITproc"	"l"	"a"	2	"WIT"	"no"	66	"a"	"whiteFace4.bmp"	800	"white"	2	"+"	"weapon4.bmp"	"weapon"	1	"a"	"a"	484	NA	NA	NA
101	1	2	2	2	5	"toolRight"	1	"WITproc"	"l"	"a"	2	"WIT"	"no"	67	"l"	"whiteFace7.bmp"	1000	"white"	2	"+"	"tool2.bmp"	"tool"	1	"l"	"l"	354	NA	NA	NA
101	1	2	2	2	5	"toolRight"	1	"WITproc"	"l"	"a"	2	"WIT"	"no"	68	"a"	"blackFace1.bmp"	1200	"black"	2	"+"	"weapon1.bmp"	"weapon"	1	"a"	"a"	369	NA	NA	NA
101	1	2	2	2	5	"toolRight"	1	"WITproc"	"l"	"a"	2	"WIT"	"no"	69	"l"	"whiteFace6.bmp"	800	"white"	2	"+"	"tool1.bmp"	"tool"	1	"l"	"l"	369	NA	NA	NA
101	1	2	2	2	5	"toolRight"	1	"WITproc"	"l"	"a"	2	"WIT"	"no"	70	"l"	"blackFace8.bmp"	1200	"black"	2	"+"	"tool3.bmp"	"tool"	1	"l"	"l"	496	NA	NA	NA
101	1	2	2	2	5	"toolRight"	1	"WITproc"	"l"	"a"	2	"WIT"	"no"	71	"l"	"whiteFace8.bmp"	1000	"white"	2	"+"	"tool1.bmp"	"tool"	1	"l"	"l"	343	NA	NA	NA
101	1	2	2	2	5	"toolRight"	1	"WITproc"	"l"	"a"	2	"WIT"	"no"	72	"a"	"blackFace6.bmp"	1200	"black"	2	"+"	"weapon1.bmp"	"weapon"	1	"a"	"a"	351	NA	NA	NA
101	1	2	2	2	5	"toolRight"	1	"WITproc"	"l"	"a"	2	"WIT"	"no"	73	"a"	"blackFace3.bmp"	800	"black"	2	"+"	"weapon1.bmp"	"weapon"	1	"a"	"a"	342	NA	NA	NA
101	1	2	2	2	5	"toolRight"	1	"WITproc"	"l"	"a"	2	"WIT"	"no"	74	"a"	"whiteFace2.bmp"	1000	"white"	2	"+"	"weapon3.bmp"	"weapon"	1	"a"	"a"	462	NA	NA	NA
101	1	2	2	2	5	"toolRight"	1	"WITproc"	"l"	"a"	2	"WIT"	"no"	75	"l"	"blackFace4.bmp"	1200	"black"	3	"TOO SLOW"	"tool4.bmp"	"tool"	0	"l"	""	0	NA	NA	NA
101	1	2	2	2	5	"toolRight"	1	"WITproc"	"l"	"a"	2	"WIT"	"no"	76	"l"	"blackFace6.bmp"	1000	"black"	1	"+"	"tool3.bmp"	"tool"	0	"l"	"a"	356	NA	NA	NA
101	1	2	2	2	5	"toolRight"	1	"WITproc"	"l"	"a"	2	"WIT"	"no"	77	"a"	"whiteFace6.bmp"	800	"white"	2	"+"	"weapon1.bmp"	"weapon"	1	"a"	"a"	364	NA	NA	NA
101	1	2	2	2	5	"toolRight"	1	"WITproc"	"l"	"a"	2	"WIT"	"no"	78	"l"	"blackFace1.bmp"	1000	"black"	2	"+"	"tool4.bmp"	"tool"	1	"l"	"l"	491	NA	NA	NA
101	1	2	2	2	5	"toolRight"	1	"WITproc"	"l"	"a"	2	"WIT"	"no"	79	"a"	"blackFace7.bmp"	1200	"black"	2	"+"	"weapon4.bmp"	"weapon"	1	"a"	"a"	442	NA	NA	NA
101	1	2	2	2	5	"toolRight"	1	"WITproc"	"l"	"a"	2	"WIT"	"no"	80	"a"	"blackFace4.bmp"	800	"black"	2	"+"	"weapon1.bmp"	"weapon"	1	"a"	"a"	474	NA	NA	NA
101	1	2	2	2	5	"toolRight"	1	"WITproc"	"l"	"a"	2	"WIT"	"no"	81	"a"	"whiteFace2.bmp"	800	"white"	2	"+"	"weapon2.bmp"	"weapon"	1	"a"	"a"	417	NA	NA	NA
101	1	2	2	2	5	"toolRight"	1	"WITproc"	"l"	"a"	2	"WIT"	"no"	82	"l"	"whiteFace5.bmp"	1000	"white"	1	"+"	"tool1.bmp"	"tool"	0	"l"	"a"	384	NA	NA	NA
101	1	2	2	2	5	"toolRight"	1	"WITproc"	"l"	"a"	2	"WIT"	"no"	83	"a"	"whiteFace1.bmp"	1200	"white"	2	"+"	"weapon2.bmp"	"weapon"	1	"a"	"a"	424	NA	NA	NA
101	1	2	2	2	5	"toolRight"	1	"WITproc"	"l"	"a"	2	"WIT"	"no"	84	"a"	"whiteFace3.bmp"	1000	"white"	2	"+"	"weapon3.bmp"	"weapon"	1	"a"	"a"	439	NA	NA	NA
101	1	2	2	2	5	"toolRight"	1	"WITproc"	"l"	"a"	2	"WIT"	"no"	85	"a"	"blackFace1.bmp"	800	"black"	2	"+"	"weapon3.bmp"	"weapon"	1	"a"	"a"	471	NA	NA	NA
101	1	2	2	2	5	"toolRight"	1	"WITproc"	"l"	"a"	2	"WIT"	"no"	86	"a"	"blackFace3.bmp"	1200	"black"	2	"+"	"weapon3.bmp"	"weapon"	1	"a"	"a"	350	NA	NA	NA
101	1	2	2	2	5	"toolRight"	1	"WITproc"	"l"	"a"	2	"WIT"	"no"	87	"l"	"whiteFace8.bmp"	1000	"white"	2	"+"	"tool2.bmp"	"tool"	1	"l"	"l"	397	NA	NA	NA
101	1	2	2	2	5	"toolRight"	1	"WITproc"	"l"	"a"	2	"WIT"	"no"	88	"l"	"whiteFace4.bmp"	800	"white"	2	"+"	"tool1.bmp"	"tool"	1	"l"	"l"	477	NA	NA	NA
101	1	2	2	2	5	"toolRight"	1	"WITproc"	"l"	"a"	2	"WIT"	"no"	89	"l"	"blackFace4.bmp"	1200	"black"	2	"+"	"tool3.bmp"	"tool"	1	"l"	"l"	452	NA	NA	NA
101	1	2	2	2	5	"toolRight"	1	"WITproc"	"l"	"a"	2	"WIT"	"no"	90	"l"	"blackFace7.bmp"	1000	"black"	1	"+"	"tool2.bmp"	"tool"	0	"l"	"a"	339	NA	NA	NA
101	1	2	2	2	5	"toolRight"	1	"WITproc"	"l"	"a"	2	"WIT"	"no"	91	"l"	"blackFace5.bmp"	1200	"black"	2	"+"	"tool2.bmp"	"tool"	1	"l"	"l"	371	NA	NA	NA
101	1	2	2	2	5	"toolRight"	1	"WITproc"	"l"	"a"	2	"WIT"	"no"	92	"l"	"blackFace4.bmp"	800	"black"	2	"+"	"tool1.bmp"	"tool"	1	"l"	"l"	466	NA	NA	NA
101	1	2	2	2	5	"toolRight"	1	"WITproc"	"l"	"a"	2	"WIT"	"no"	93	"a"	"whiteFace5.bmp"	1000	"white"	1	"+"	"weapon1.bmp"	"weapon"	0	"a"	"l"	329	NA	NA	NA
101	1	2	2	2	5	"toolRight"	1	"WITproc"	"l"	"a"	2	"WIT"	"no"	94	"a"	"whiteFace8.bmp"	1200	"white"	2	"+"	"weapon2.bmp"	"weapon"	1	"a"	"a"	481	NA	NA	NA
101	1	2	2	2	5	"toolRight"	1	"WITproc"	"l"	"a"	2	"WIT"	"no"	95	"a"	"whiteFace5.bmp"	800	"white"	2	"+"	"weapon2.bmp"	"weapon"	1	"a"	"a"	464	NA	NA	NA
101	1	2	2	2	5	"toolRight"	1	"WITproc"	"l"	"a"	2	"WIT"	"no"	96	"l"	"whiteFace3.bmp"	1200	"white"	2	"+"	"tool4.bmp"	"tool"	1	"l"	"l"	424	NA	NA	NA
101	1	2	2	2	5	"toolRight"	1	"WITproc"	"l"	"a"	2	"WIT"	"no"	97	"a"	"blackFace2.bmp"	800	"black"	2	"+"	"weapon1.bmp"	"weapon"	1	"a"	"a"	449	NA	NA	NA
101	1	2	2	2	5	"toolRight"	1	"WITproc"	"l"	"a"	2	"WIT"	"no"	98	"l"	"whiteFace1.bmp"	1000	"white"	2	"+"	"tool4.bmp"	"tool"	1	"l"	"l"	345	NA	NA	NA
101	1	2	2	2	5	"toolRight"	1	"WITproc"	"l"	"a"	2	"WIT"	"no"	99	"a"	"whiteFace8.bmp"	800	"white"	2	"+"	"weapon1.bmp"	"weapon"	1	"a"	"a"	376	NA	NA	NA
101	1	2	2	2	5	"toolRight"	1	"WITproc"	"l"	"a"	2	"WIT"	"no"	100	"a"	"blackFace5.bmp"	1200	"black"	2	"+"	"weapon1.bmp"	"weapon"	1	"a"	"a"	392	NA	NA	NA
101	1	2	2	2	5	"toolRight"	1	"WITproc"	"l"	"a"	2	"WIT"	"no"	101	"l"	"blackFace7.bmp"	1000	"black"	2	"+"	"tool4.bmp"	"tool"	1	"l"	"l"	463	NA	NA	NA
101	1	2	2	2	5	"toolRight"	1	"WITproc"	"l"	"a"	2	"WIT"	"no"	102	"l"	"whiteFace8.bmp"	1000	"white"	2	"+"	"tool3.bmp"	"tool"	1	"l"	"l"	366	NA	NA	NA
101	1	2	2	2	5	"toolRight"	1	"WITproc"	"l"	"a"	2	"WIT"	"no"	103	"l"	"blackFace5.bmp"	800	"black"	2	"+"	"tool1.bmp"	"tool"	1	"l"	"l"	454	NA	NA	NA
101	1	2	2	2	5	"toolRight"	1	"WITproc"	"l"	"a"	2	"WIT"	"no"	104	"l"	"blackFace2.bmp"	1200	"black"	1	"+"	"tool2.bmp"	"tool"	0	"l"	"a"	365	NA	NA	NA
