"Subject"	"Session"	"DemoAge.RESP"	"DemoEthnicity.RESP"	"DemoGender.RESP"	"DemoRace.RESP"	"responseMappingTool"	"Block"	"Procedure.Block."	"toolResponse"	"weaponResponse"	"Trial"	"blockName"	"Practice.Trial."	"SubTrial"	"CorrectResponse"	"facePictureFile"	"ITIDuration"	"PrimeType"	"responseAccData"	"rtFeedbackText"	"targetPictureFile"	"TargetType"	"TargetWIT.ACC"	"TargetWIT.CRESP"	"TargetWIT.RESP"	"TargetWIT.RT"
1	1	1	3	2	5	"toolRight"	1	"WITproc"	"l"	"a"	1	"practiceWIT"	"yes"	1	"a"	"whiteFace7.bmp"	"1200"	"white"	"3"	"TOO SLOW"	"weapon2.bmp"	"weapon"	"0"	"a"	""	"0"
1	1	1	3	2	5	"toolRight"	1	"WITproc"	"l"	"a"	1	"practiceWIT"	"yes"	2	"l"	"whiteFace4.bmp"	"800"	"white"	"1"	"+"	"tool4.bmp"	"tool"	"0"	"l"	"a"	"351"
1	1	1	3	2	5	"toolRight"	1	"WITproc"	"l"	"a"	1	"practiceWIT"	"yes"	3	"l"	"blackFace5.bmp"	"1000"	"black"	"2"	"+"	"tool1.bmp"	"tool"	"1"	"l"	"l"	"311"
1	1	1	3	2	5	"toolRight"	1	"WITproc"	"l"	"a"	1	"practiceWIT"	"yes"	4	"l"	"whiteFace5.bmp"	"1200"	"white"	"3"	"TOO SLOW"	"tool2.bmp"	"tool"	"0"	"l"	""	"0"
1	1	1	3	2	5	"toolRight"	1	"WITproc"	"l"	"a"	1	"practiceWIT"	"yes"	5	"l"	"whiteFace4.bmp"	"800"	"white"	"1"	"+"	"tool3.bmp"	"tool"	"0"	"l"	"a"	"373"
1	1	1	3	2	5	"toolRight"	1	"WITproc"	"l"	"a"	1	"practiceWIT"	"yes"	6	"a"	"blackFace3.bmp"	"1000"	"black"	"3"	"TOO SLOW"	"weapon1.bmp"	"weapon"	"0"	"a"	""	"0"
1	1	1	3	2	5	"toolRight"	1	"WITproc"	"l"	"a"	1	"practiceWIT"	"yes"	7	"l"	"blackFace2.bmp"	"800"	"black"	"1"	"+"	"tool4.bmp"	"tool"	"0"	"l"	"a"	"362"
1	1	1	3	2	5	"toolRight"	1	"WITproc"	"l"	"a"	1	"practiceWIT"	"yes"	8	"a"	"whiteFace5.bmp"	"1200"	"white"	"3"	"TOO SLOW"	"weapon2.bmp"	"weapon"	"0"	"a"	""	"0"
1	1	1	3	2	5	"toolRight"	1	"WITproc"	"l"	"a"	1	"practiceWIT"	"yes"	9	"a"	"whiteFace6.bmp"	"1000"	"white"	"1"	"+"	"weapon4.bmp"	"weapon"	"0"	"a"	"l"	"425"
1	1	1	3	2	5	"toolRight"	1	"WITproc"	"l"	"a"	1	"practiceWIT"	"yes"	10	"l"	"whiteFace6.bmp"	"1200"	"white"	"1"	"+"	"tool3.bmp"	"tool"	"0"	"l"	"a"	"232"
1	1	1	3	2	5	"toolRight"	1	"WITproc"	"l"	"a"	1	"practiceWIT"	"yes"	11	"l"	"blackFace8.bmp"	"800"	"black"	"3"	"TOO SLOW"	"tool4.bmp"	"tool"	"0"	"l"	""	"0"
1	1	1	3	2	5	"toolRight"	1	"WITproc"	"l"	"a"	1	"practiceWIT"	"yes"	12	"l"	"blackFace2.bmp"	"1000"	"black"	"2"	"+"	"tool3.bmp"	"tool"	"1"	"l"	"l"	"351"
1	1	1	3	2	5	"toolRight"	1	"WITproc"	"l"	"a"	1	"practiceWIT"	"yes"	13	"a"	"whiteFace3.bmp"	"1000"	"white"	"1"	"+"	"weapon1.bmp"	"weapon"	"0"	"a"	"l"	"391"
1	1	1	3	2	5	"toolRight"	1	"WITproc"	"l"	"a"	1	"practiceWIT"	"yes"	14	"a"	"blackFace5.bmp"	"800"	"black"	"1"	"+"	"weapon1.bmp"	"weapon"	"0"	"a"	"l"	"350"
1	1	1	3	2	5	"toolRight"	1	"WITproc"	"l"	"a"	1	"practiceWIT"	"yes"	15	"a"	"blackFace4.bmp"	"1200"	"black"	"2"	"+"	"weapon3.bmp"	"weapon"	"1"	"a"	"a"	"213"
1	1	1	3	2	5	"toolRight"	1	"WITproc"	"l"	"a"	1	"practiceWIT"	"yes"	16	"a"	"blackFace6.bmp"	"1200"	"black"	"1"	"+"	"weapon4.bmp"	"weapon"	"0"	"a"	"l"	"357"
1	1	1	3	2	5	"toolRight"	1	"WITproc"	"l"	"a"	2	"WIT"	"no"	1	"a"	"blackFace5.bmp"	"800"	"black"	"2"	"+"	"weapon3.bmp"	"weapon"	"1"	"a"	"a"	"457"
1	1	1	3	2	5	"toolRight"	1	"WITproc"	"l"	"a"	2	"WIT"	"no"	2	"a"	"blackFace7.bmp"	"1000"	"black"	"2"	"+"	"weapon4.bmp"	"weapon"	"1"	"a"	"a"	"472"
1	1	1	3	2	5	"toolRight"	1	"WITproc"	"l"	"a"	2	"WIT"	"no"	3	"a"	"whiteFace2.bmp"	"1200"	"white"	"1"	"+"	"weapon4.bmp"	"weapon"	"0"	"a"	"l"	"336"
1	1	1	3	2	5	"toolRight"	1	"WITproc"	"l"	"a"	2	"WIT"	"no"	4	"l"	"whiteFace4.bmp"	"800"	"white"	"3"	"TOO SLOW"	"tool2.bmp"	"tool"	"0"	"l"	""	"0"
1	1	1	3	2	5	"toolRight"	1	"WITproc"	"l"	"a"	2	"WIT"	"no"	5	"l"	"whiteFace6.bmp"	"1000"	"white"	"2"	"+"	"tool4.bmp"	"tool"	"1"	"l"	"l"	"470"
1	1	1	3	2	5	"toolRight"	1	"WITproc"	"l"	"a"	2	"WIT"	"no"	6	"a"	"whiteFace2.bmp"	"1200"	"white"	"2"	"+"	"weapon2.bmp"	"weapon"	"1"	"a"	"a"	"454"
1	1	1	3	2	5	"toolRight"	1	"WITproc"	"l"	"a"	2	"WIT"	"no"	7	"a"	"blackFace1.bmp"	"1000"	"black"	"3"	"TOO SLOW"	"weapon4.bmp"	"weapon"	"0"	"a"	""	"0"
1	1	1	3	2	5	"toolRight"	1	"WITproc"	"l"	"a"	2	"WIT"	"no"	8	"a"	"blackFace3.bmp"	"800"	"black"	"2"	"+"	"weapon3.bmp"	"weapon"	"1"	"a"	"a"	"436"
1	1	1	3	2	5	"toolRight"	1	"WITproc"	"l"	"a"	2	"WIT"	"no"	9	"a"	"whiteFace2.bmp"	"1200"	"white"	"1"	"+"	"weapon3.bmp"	"weapon"	"0"	"a"	"l"	"308"
1	1	1	3	2	5	"toolRight"	1	"WITproc"	"l"	"a"	2	"WIT"	"no"	10	"a"	"whiteFace7.bmp"	"800"	"white"	"1"	"+"	"weapon1.bmp"	"weapon"	"0"	"a"	"l"	"347"
1	1	1	3	2	5	"toolRight"	1	"WITproc"	"l"	"a"	2	"WIT"	"no"	11	"l"	"blackFace8.bmp"	"1000"	"black"	"1"	"+"	"tool3.bmp"	"tool"	"0"	"l"	"a"	"378"
1	1	1	3	2	5	"toolRight"	1	"WITproc"	"l"	"a"	2	"WIT"	"no"	12	"a"	"whiteFace6.bmp"	"800"	"white"	"2"	"+"	"weapon1.bmp"	"weapon"	"1"	"a"	"a"	"450"
1	1	1	3	2	5	"toolRight"	1	"WITproc"	"l"	"a"	2	"WIT"	"no"	13	"l"	"blackFace7.bmp"	"1200"	"black"	"2"	"+"	"tool4.bmp"	"tool"	"1"	"l"	"l"	"481"
1	1	1	3	2	5	"toolRight"	1	"WITproc"	"l"	"a"	2	"WIT"	"no"	14	"l"	"blackFace2.bmp"	"1000"	"black"	"2"	"+"	"tool2.bmp"	"tool"	"1"	"l"	"l"	"425"
1	1	1	3	2	5	"toolRight"	1	"WITproc"	"l"	"a"	2	"WIT"	"no"	15	"a"	"whiteFace1.bmp"	"1000"	"white"	"3"	"TOO SLOW"	"weapon2.bmp"	"weapon"	"0"	"a"	""	"0"
1	1	1	3	2	5	"toolRight"	1	"WITproc"	"l"	"a"	2	"WIT"	"no"	16	"a"	"whiteFace1.bmp"	"800"	"white"	"3"	"TOO SLOW"	"weapon4.bmp"	"weapon"	"0"	"a"	""	"0"
1	1	1	3	2	5	"toolRight"	1	"WITproc"	"l"	"a"	2	"WIT"	"no"	17	"l"	"blackFace5.bmp"	"1200"	"black"	"2"	"+"	"tool4.bmp"	"tool"	"1"	"l"	"l"	"453"
1	1	1	3	2	5	"toolRight"	1	"WITproc"	"l"	"a"	2	"WIT"	"no"	18	"a"	"blackFace2.bmp"	"1200"	"black"	"2"	"+"	"weapon1.bmp"	"weapon"	"1"	"a"	"a"	"324"
1	1	1	3	2	5	"toolRight"	1	"WITproc"	"l"	"a"	2	"WIT"	"no"	19	"l"	"blackFace7.bmp"	"800"	"black"	"1"	"+"	"tool3.bmp"	"tool"	"0"	"l"	"a"	"396"
1	1	1	3	2	5	"toolRight"	1	"WITproc"	"l"	"a"	2	"WIT"	"no"	20	"l"	"whiteFace1.bmp"	"1000"	"white"	"3"	"TOO SLOW"	"tool2.bmp"	"tool"	"0"	"l"	""	"0"
1	1	1	3	2	5	"toolRight"	1	"WITproc"	"l"	"a"	2	"WIT"	"no"	21	"a"	"blackFace1.bmp"	"800"	"black"	"1"	"+"	"weapon2.bmp"	"weapon"	"0"	"a"	"l"	"210"
1	1	1	3	2	5	"toolRight"	1	"WITproc"	"l"	"a"	2	"WIT"	"no"	22	"l"	"whiteFace4.bmp"	"1200"	"white"	"1"	"+"	"tool4.bmp"	"tool"	"0"	"l"	"a"	"370"
1	1	1	3	2	5	"toolRight"	1	"WITproc"	"l"	"a"	2	"WIT"	"no"	23	"l"	"blackFace2.bmp"	"1000"	"black"	"2"	"+"	"tool4.bmp"	"tool"	"1"	"l"	"l"	"441"
1	1	1	3	2	5	"toolRight"	1	"WITproc"	"l"	"a"	2	"WIT"	"no"	24	"l"	"whiteFace7.bmp"	"1200"	"white"	"3"	"TOO SLOW"	"tool4.bmp"	"tool"	"0"	"l"	""	"0"
1	1	1	3	2	5	"toolRight"	1	"WITproc"	"l"	"a"	2	"WIT"	"no"	25	"a"	"blackFace2.bmp"	"800"	"black"	"2"	"+"	"weapon3.bmp"	"weapon"	"1"	"a"	"a"	"480"
1	1	1	3	2	5	"toolRight"	1	"WITproc"	"l"	"a"	2	"WIT"	"no"	26	"a"	"whiteFace3.bmp"	"1000"	"white"	"2"	"+"	"weapon2.bmp"	"weapon"	"1"	"a"	"a"	"391"
1	1	1	3	2	5	"toolRight"	1	"WITproc"	"l"	"a"	2	"WIT"	"no"	27	"a"	"whiteFace8.bmp"	"800"	"white"	"1"	"+"	"weapon1.bmp"	"weapon"	"0"	"a"	"l"	"439"
1	1	1	3	2	5	"toolRight"	1	"WITproc"	"l"	"a"	2	"WIT"	"no"	28	"l"	"whiteFace1.bmp"	"1200"	"white"	"3"	"TOO SLOW"	"tool4.bmp"	"tool"	"0"	"l"	""	"0"
1	1	1	3	2	5	"toolRight"	1	"WITproc"	"l"	"a"	2	"WIT"	"no"	29	"l"	"whiteFace7.bmp"	"1000"	"white"	"1"	"+"	"tool1.bmp"	"tool"	"0"	"l"	"a"	"293"
1	1	1	3	2	5	"toolRight"	1	"WITproc"	"l"	"a"	2	"WIT"	"no"	30	"l"	"blackFace1.bmp"	"1000"	"black"	"3"	"TOO SLOW"	"tool3.bmp"	"tool"	"0"	"l"	""	"0"
1	1	1	3	2	5	"toolRight"	1	"WITproc"	"l"	"a"	2	"WIT"	"no"	31	"l"	"blackFace1.bmp"	"800"	"black"	"2"	"+"	"tool4.bmp"	"tool"	"1"	"l"	"l"	"252"
1	1	1	3	2	5	"toolRight"	1	"WITproc"	"l"	"a"	2	"WIT"	"no"	32	"a"	"whiteFace4.bmp"	"1200"	"white"	"2"	"+"	"weapon4.bmp"	"weapon"	"1"	"a"	"a"	"411"
1	1	1	3	2	5	"toolRight"	1	"WITproc"	"l"	"a"	2	"WIT"	"no"	33	"a"	"whiteFace3.bmp"	"800"	"white"	"2"	"+"	"weapon4.bmp"	"weapon"	"1"	"a"	"a"	"411"
1	1	1	3	2	5	"toolRight"	1	"WITproc"	"l"	"a"	2	"WIT"	"no"	34	"a"	"blackFace1.bmp"	"1200"	"black"	"2"	"+"	"weapon3.bmp"	"weapon"	"1"	"a"	"a"	"490"
1	1	1	3	2	5	"toolRight"	1	"WITproc"	"l"	"a"	2	"WIT"	"no"	35	"l"	"whiteFace5.bmp"	"1000"	"white"	"2"	"+"	"tool1.bmp"	"tool"	"1"	"l"	"l"	"402"
1	1	1	3	2	5	"toolRight"	1	"WITproc"	"l"	"a"	2	"WIT"	"no"	36	"l"	"whiteFace3.bmp"	"1200"	"white"	"1"	"+"	"tool1.bmp"	"tool"	"0"	"l"	"a"	"417"
1	1	1	3	2	5	"toolRight"	1	"WITproc"	"l"	"a"	2	"WIT"	"no"	37	"l"	"whiteFace2.bmp"	"1000"	"white"	"1"	"+"	"tool2.bmp"	"tool"	"0"	"l"	"a"	"304"
1	1	1	3	2	5	"toolRight"	1	"WITproc"	"l"	"a"	2	"WIT"	"no"	38	"a"	"whiteFace7.bmp"	"800"	"white"	"3"	"TOO SLOW"	"weapon4.bmp"	"weapon"	"0"	"a"	""	"0"
1	1	1	3	2	5	"toolRight"	1	"WITproc"	"l"	"a"	2	"WIT"	"no"	39	"a"	"blackFace6.bmp"	"1200"	"black"	"1"	"+"	"weapon3.bmp"	"weapon"	"0"	"a"	"l"	"263"
1	1	1	3	2	5	"toolRight"	1	"WITproc"	"l"	"a"	2	"WIT"	"no"	40	"a"	"blackFace5.bmp"	"800"	"black"	"2"	"+"	"weapon1.bmp"	"weapon"	"1"	"a"	"a"	"230"
1	1	1	3	2	5	"toolRight"	1	"WITproc"	"l"	"a"	2	"WIT"	"no"	41	"l"	"whiteFace3.bmp"	"1000"	"white"	"1"	"+"	"tool2.bmp"	"tool"	"0"	"l"	"a"	"382"
1	1	1	3	2	5	"toolRight"	1	"WITproc"	"l"	"a"	2	"WIT"	"no"	42	"l"	"whiteFace7.bmp"	"1000"	"white"	"1"	"+"	"tool3.bmp"	"tool"	"0"	"l"	"a"	"421"
1	1	1	3	2	5	"toolRight"	1	"WITproc"	"l"	"a"	2	"WIT"	"no"	43	"l"	"blackFace8.bmp"	"800"	"black"	"2"	"+"	"tool1.bmp"	"tool"	"1"	"l"	"l"	"388"
1	1	1	3	2	5	"toolRight"	1	"WITproc"	"l"	"a"	2	"WIT"	"no"	44	"a"	"blackFace7.bmp"	"1200"	"black"	"1"	"+"	"weapon2.bmp"	"weapon"	"0"	"a"	"l"	"380"
1	1	1	3	2	5	"toolRight"	1	"WITproc"	"l"	"a"	2	"WIT"	"no"	45	"a"	"blackFace8.bmp"	"800"	"black"	"2"	"+"	"weapon2.bmp"	"weapon"	"1"	"a"	"a"	"363"
1	1	1	3	2	5	"toolRight"	1	"WITproc"	"l"	"a"	2	"WIT"	"no"	46	"l"	"blackFace3.bmp"	"1000"	"black"	"1"	"+"	"tool4.bmp"	"tool"	"0"	"l"	"a"	"323"
1	1	1	3	2	5	"toolRight"	1	"WITproc"	"l"	"a"	2	"WIT"	"no"	47	"a"	"blackFace3.bmp"	"1200"	"black"	"1"	"+"	"weapon2.bmp"	"weapon"	"0"	"a"	"l"	"354"
1	1	1	3	2	5	"toolRight"	1	"WITproc"	"l"	"a"	2	"WIT"	"no"	48	"a"	"whiteFace6.bmp"	"1000"	"white"	"2"	"+"	"weapon4.bmp"	"weapon"	"1"	"a"	"a"	"328"
1	1	1	3	2	5	"toolRight"	1	"WITproc"	"l"	"a"	2	"WIT"	"no"	49	"a"	"whiteFace5.bmp"	"1200"	"white"	"2"	"+"	"weapon1.bmp"	"weapon"	"1"	"a"	"a"	"376"
1	1	1	3	2	5	"toolRight"	1	"WITproc"	"l"	"a"	2	"WIT"	"no"	50	"l"	"blackFace3.bmp"	"800"	"black"	"1"	"+"	"tool3.bmp"	"tool"	"0"	"l"	"a"	"343"
1	1	1	3	2	5	"toolRight"	1	"WITproc"	"l"	"a"	2	"WIT"	"no"	51	"l"	"whiteFace5.bmp"	"800"	"white"	"3"	"TOO SLOW"	"tool4.bmp"	"tool"	"0"	"l"	""	"0"
1	1	1	3	2	5	"toolRight"	1	"WITproc"	"l"	"a"	2	"WIT"	"no"	52	"l"	"blackFace6.bmp"	"1200"	"black"	"2"	"+"	"tool3.bmp"	"tool"	"1"	"l"	"l"	"333"
1	1	1	3	2	5	"toolRight"	1	"WITproc"	"l"	"a"	2	"WIT"	"no"	53	"l"	"blackFace4.bmp"	"1000"	"black"	"2"	"+"	"tool4.bmp"	"tool"	"1"	"l"	"l"	"164"
1	1	1	3	2	5	"toolRight"	1	"WITproc"	"l"	"a"	2	"WIT"	"no"	54	"l"	"whiteFace6.bmp"	"1000"	"white"	"1"	"+"	"tool2.bmp"	"tool"	"0"	"l"	"a"	"276"
1	1	1	3	2	5	"toolRight"	1	"WITproc"	"l"	"a"	2	"WIT"	"no"	55	"l"	"whiteFace6.bmp"	"800"	"white"	"1"	"+"	"tool3.bmp"	"tool"	"0"	"l"	"a"	"347"
1	1	1	3	2	5	"toolRight"	1	"WITproc"	"l"	"a"	2	"WIT"	"no"	56	"a"	"blackFace7.bmp"	"1200"	"black"	"1"	"+"	"weapon3.bmp"	"weapon"	"0"	"a"	"l"	"315"
1	1	1	3	2	5	"toolRight"	1	"WITproc"	"l"	"a"	2	"WIT"	"no"	57	"a"	"blackFace5.bmp"	"1000"	"black"	"2"	"+"	"weapon4.bmp"	"weapon"	"1"	"a"	"a"	"386"
1	1	1	3	2	5	"toolRight"	1	"WITproc"	"l"	"a"	2	"WIT"	"no"	58	"l"	"whiteFace8.bmp"	"1200"	"white"	"3"	"TOO SLOW"	"tool2.bmp"	"tool"	"0"	"l"	""	"0"
1	1	1	3	2	5	"toolRight"	1	"WITproc"	"l"	"a"	2	"WIT"	"no"	59	"a"	"blackFace3.bmp"	"800"	"black"	"2"	"+"	"weapon4.bmp"	"weapon"	"1"	"a"	"a"	"320"
1	1	1	3	2	5	"toolRight"	1	"WITproc"	"l"	"a"	2	"WIT"	"no"	60	"l"	"blackFace4.bmp"	"1200"	"black"	"2"	"+"	"tool1.bmp"	"tool"	"1"	"l"	"l"	"359"
1	1	1	3	2	5	"toolRight"	1	"WITproc"	"l"	"a"	2	"WIT"	"no"	61	"l"	"blackFace3.bmp"	"1000"	"black"	"1"	"+"	"tool1.bmp"	"tool"	"0"	"l"	"a"	"415"
1	1	1	3	2	5	"toolRight"	1	"WITproc"	"l"	"a"	2	"WIT"	"no"	62	"a"	"whiteFace3.bmp"	"800"	"white"	"1"	"+"	"weapon3.bmp"	"weapon"	"0"	"a"	"l"	"342"
1	1	1	3	2	5	"toolRight"	1	"WITproc"	"l"	"a"	2	"WIT"	"no"	63	"l"	"blackFace3.bmp"	"800"	"black"	"3"	"TOO SLOW"	"tool2.bmp"	"tool"	"0"	"l"	""	"0"
1	1	1	3	2	5	"toolRight"	1	"WITproc"	"l"	"a"	2	"WIT"	"no"	64	"a"	"whiteFace1.bmp"	"1000"	"white"	"1"	"+"	"weapon1.bmp"	"weapon"	"0"	"a"	"l"	"292"
1	1	1	3	2	5	"toolRight"	1	"WITproc"	"l"	"a"	2	"WIT"	"no"	65	"a"	"whiteFace1.bmp"	"1200"	"white"	"2"	"+"	"weapon3.bmp"	"weapon"	"1"	"a"	"a"	"371"
1	1	1	3	2	5	"toolRight"	1	"WITproc"	"l"	"a"	2	"WIT"	"no"	66	"l"	"blackFace6.bmp"	"800"	"black"	"1"	"+"	"tool2.bmp"	"tool"	"0"	"l"	"a"	"411"
1	1	1	3	2	5	"toolRight"	1	"WITproc"	"l"	"a"	2	"WIT"	"no"	67	"l"	"whiteFace6.bmp"	"1200"	"white"	"1"	"+"	"tool1.bmp"	"tool"	"0"	"l"	"a"	"362"
1	1	1	3	2	5	"toolRight"	1	"WITproc"	"l"	"a"	2	"WIT"	"no"	68	"a"	"blackFace2.bmp"	"1000"	"black"	"2"	"+"	"weapon4.bmp"	"weapon"	"1"	"a"	"a"	"370"
1	1	1	3	2	5	"toolRight"	1	"WITproc"	"l"	"a"	2	"WIT"	"no"	69	"l"	"blackFace1.bmp"	"1200"	"black"	"2"	"+"	"tool1.bmp"	"tool"	"1"	"l"	"l"	"305"
1	1	1	3	2	5	"toolRight"	1	"WITproc"	"l"	"a"	2	"WIT"	"no"	70	"l"	"blackFace6.bmp"	"1000"	"black"	"1"	"+"	"tool4.bmp"	"tool"	"0"	"l"	"a"	"336"
1	1	1	3	2	5	"toolRight"	1	"WITproc"	"l"	"a"	2	"WIT"	"no"	71	"a"	"blackFace6.bmp"	"800"	"black"	"2"	"+"	"weapon1.bmp"	"weapon"	"1"	"a"	"a"	"408"
1	1	1	3	2	5	"toolRight"	1	"WITproc"	"l"	"a"	2	"WIT"	"no"	72	"a"	"whiteFace5.bmp"	"1200"	"white"	"1"	"+"	"weapon4.bmp"	"weapon"	"0"	"a"	"l"	"399"
1	1	1	3	2	5	"toolRight"	1	"WITproc"	"l"	"a"	2	"WIT"	"no"	73	"l"	"whiteFace8.bmp"	"1000"	"white"	"3"	"TOO SLOW"	"tool3.bmp"	"tool"	"0"	"l"	""	"0"
1	1	1	3	2	5	"toolRight"	1	"WITproc"	"l"	"a"	2	"WIT"	"no"	74	"a"	"whiteFace7.bmp"	"800"	"white"	"2"	"+"	"weapon3.bmp"	"weapon"	"1"	"a"	"a"	"421"
1	1	1	3	2	5	"toolRight"	1	"WITproc"	"l"	"a"	2	"WIT"	"no"	75	"l"	"whiteFace2.bmp"	"1200"	"white"	"1"	"+"	"tool4.bmp"	"tool"	"0"	"l"	"a"	"428"
1	1	1	3	2	5	"toolRight"	1	"WITproc"	"l"	"a"	2	"WIT"	"no"	76	"a"	"whiteFace3.bmp"	"1000"	"white"	"2"	"+"	"weapon1.bmp"	"weapon"	"1"	"a"	"a"	"388"
1	1	1	3	2	5	"toolRight"	1	"WITproc"	"l"	"a"	2	"WIT"	"no"	77	"l"	"blackFace8.bmp"	"800"	"black"	"2"	"+"	"tool2.bmp"	"tool"	"1"	"l"	"l"	"259"
1	1	1	3	2	5	"toolRight"	1	"WITproc"	"l"	"a"	2	"WIT"	"no"	78	"a"	"whiteFace5.bmp"	"800"	"white"	"2"	"+"	"weapon2.bmp"	"weapon"	"1"	"a"	"a"	"282"
1	1	1	3	2	5	"toolRight"	1	"WITproc"	"l"	"a"	2	"WIT"	"no"	79	"a"	"blackFace1.bmp"	"1200"	"black"	"2"	"+"	"weapon1.bmp"	"weapon"	"1"	"a"	"a"	"330"
1	1	1	3	2	5	"toolRight"	1	"WITproc"	"l"	"a"	2	"WIT"	"no"	80	"l"	"whiteFace4.bmp"	"1000"	"white"	"2"	"+"	"tool3.bmp"	"tool"	"1"	"l"	"l"	"344"
1	1	1	3	2	5	"toolRight"	1	"WITproc"	"l"	"a"	2	"WIT"	"no"	81	"l"	"whiteFace2.bmp"	"800"	"white"	"3"	"TOO SLOW"	"tool1.bmp"	"tool"	"0"	"l"	""	"0"
1	1	1	3	2	5	"toolRight"	1	"WITproc"	"l"	"a"	2	"WIT"	"no"	82	"l"	"blackFace7.bmp"	"1000"	"black"	"1"	"+"	"tool2.bmp"	"tool"	"0"	"l"	"a"	"278"
1	1	1	3	2	5	"toolRight"	1	"WITproc"	"l"	"a"	2	"WIT"	"no"	83	"l"	"blackFace5.bmp"	"1200"	"black"	"3"	"TOO SLOW"	"tool2.bmp"	"tool"	"0"	"l"	""	"0"
1	1	1	3	2	5	"toolRight"	1	"WITproc"	"l"	"a"	2	"WIT"	"no"	84	"l"	"whiteFace1.bmp"	"1200"	"white"	"1"	"+"	"tool3.bmp"	"tool"	"0"	"l"	"a"	"237"
1	1	1	3	2	5	"toolRight"	1	"WITproc"	"l"	"a"	2	"WIT"	"no"	85	"a"	"blackFace8.bmp"	"800"	"black"	"1"	"+"	"weapon1.bmp"	"weapon"	"0"	"a"	"l"	"260"
1	1	1	3	2	5	"toolRight"	1	"WITproc"	"l"	"a"	2	"WIT"	"no"	86	"a"	"blackFace4.bmp"	"1000"	"black"	"2"	"+"	"weapon1.bmp"	"weapon"	"1"	"a"	"a"	"300"
1	1	1	3	2	5	"toolRight"	1	"WITproc"	"l"	"a"	2	"WIT"	"no"	87	"a"	"blackFace3.bmp"	"1200"	"black"	"1"	"+"	"weapon1.bmp"	"weapon"	"0"	"a"	"l"	"235"
1	1	1	3	2	5	"toolRight"	1	"WITproc"	"l"	"a"	2	"WIT"	"no"	88	"a"	"blackFace4.bmp"	"1000"	"black"	"2"	"+"	"weapon2.bmp"	"weapon"	"1"	"a"	"a"	"179"
1	1	1	3	2	5	"toolRight"	1	"WITproc"	"l"	"a"	2	"WIT"	"no"	89	"l"	"blackFace6.bmp"	"800"	"black"	"3"	"TOO SLOW"	"tool1.bmp"	"tool"	"0"	"l"	""	"0"
1	1	1	3	2	5	"toolRight"	1	"WITproc"	"l"	"a"	2	"WIT"	"no"	90	"a"	"blackFace8.bmp"	"1000"	"black"	"1"	"+"	"weapon4.bmp"	"weapon"	"0"	"a"	"l"	"81"
1	1	1	3	2	5	"toolRight"	1	"WITproc"	"l"	"a"	2	"WIT"	"no"	91	"a"	"whiteFace4.bmp"	"1200"	"white"	"2"	"+"	"weapon1.bmp"	"weapon"	"1"	"a"	"a"	"97"
1	1	1	3	2	5	"toolRight"	1	"WITproc"	"l"	"a"	2	"WIT"	"no"	92	"l"	"whiteFace5.bmp"	"800"	"white"	"2"	"+"	"tool2.bmp"	"tool"	"1"	"l"	"l"	"240"
1	1	1	3	2	5	"toolRight"	1	"WITproc"	"l"	"a"	2	"WIT"	"no"	93	"l"	"blackFace5.bmp"	"800"	"black"	"2"	"+"	"tool3.bmp"	"tool"	"1"	"l"	"l"	"175"
1	1	1	3	2	5	"toolRight"	1	"WITproc"	"l"	"a"	2	"WIT"	"no"	94	"a"	"whiteFace4.bmp"	"1200"	"white"	"2"	"+"	"weapon2.bmp"	"weapon"	"1"	"a"	"a"	"239"
1	1	1	3	2	5	"toolRight"	1	"WITproc"	"l"	"a"	2	"WIT"	"no"	95	"l"	"blackFace4.bmp"	"1000"	"black"	"1"	"+"	"tool2.bmp"	"tool"	"0"	"l"	"a"	"206"
1	1	1	3	2	5	"toolRight"	1	"WITproc"	"l"	"a"	2	"WIT"	"no"	96	"a"	"whiteFace2.bmp"	"800"	"white"	"1"	"+"	"weapon1.bmp"	"weapon"	"0"	"a"	"l"	"229"
1	1	1	3	2	5	"toolRight"	1	"WITproc"	"l"	"a"	2	"WIT"	"no"	97	"a"	"whiteFace8.bmp"	"1200"	"white"	"2"	"+"	"weapon2.bmp"	"weapon"	"1"	"a"	"a"	"336"
1	1	1	3	2	5	"toolRight"	1	"WITproc"	"l"	"a"	2	"WIT"	"no"	98	"a"	"blackFace4.bmp"	"1000"	"black"	"1"	"+"	"weapon3.bmp"	"weapon"	"0"	"a"	"l"	"231"
1	1	1	3	2	5	"toolRight"	1	"WITproc"	"l"	"a"	2	"WIT"	"no"	99	"l"	"whiteFace4.bmp"	"1000"	"white"	"1"	"+"	"tool1.bmp"	"tool"	"0"	"l"	"a"	"326"
1	1	1	3	2	5	"toolRight"	1	"WITproc"	"l"	"a"	2	"WIT"	"no"	100	"a"	"blackFace6.bmp"	"1200"	"black"	"2"	"+"	"weapon2.bmp"	"weapon"	"1"	"a"	"a"	"366"
1	1	1	3	2	5	"toolRight"	1	"WITproc"	"l"	"a"	2	"WIT"	"no"	101	"l"	"whiteFace7.bmp"	"800"	"white"	"2"	"+"	"tool2.bmp"	"tool"	"1"	"l"	"l"	"341"
1	1	1	3	2	5	"toolRight"	1	"WITproc"	"l"	"a"	2	"WIT"	"no"	102	"a"	"blackFace2.bmp"	"800"	"black"	"2"	"+"	"weapon2.bmp"	"weapon"	"1"	"a"	"a"	"284"
1	1	1	3	2	5	"toolRight"	1	"WITproc"	"l"	"a"	2	"WIT"	"no"	103	"l"	"whiteFace3.bmp"	"1200"	"white"	"1"	"+"	"tool3.bmp"	"tool"	"0"	"l"	"a"	"340"
1	1	1	3	2	5	"toolRight"	1	"WITproc"	"l"	"a"	2	"WIT"	"no"	104	"l"	"blackFace4.bmp"	"1000"	"black"	"2"	"+"	"tool3.bmp"	"tool"	"1"	"l"	"l"	"283"
1	1	1	3	2	5	"toolRight"	1	"WITproc"	"l"	"a"	2	"WIT"	"no"	105	"a"	"blackFace7.bmp"	"1000"	"black"	"2"	"+"	"weapon1.bmp"	"weapon"	"1"	"a"	"a"	"266"
1	1	1	3	2	5	"toolRight"	1	"WITproc"	"l"	"a"	2	"WIT"	"no"	106	"a"	"whiteFace4.bmp"	"800"	"white"	"2"	"+"	"weapon3.bmp"	"weapon"	"1"	"a"	"a"	"322"
1	1	1	3	2	5	"toolRight"	1	"WITproc"	"l"	"a"	2	"WIT"	"no"	107	"a"	"whiteFace7.bmp"	"1200"	"white"	"1"	"+"	"weapon2.bmp"	"weapon"	"0"	"a"	"l"	"321"
1	1	1	3	2	5	"toolRight"	1	"WITproc"	"l"	"a"	2	"WIT"	"no"	108	"l"	"blackFace8.bmp"	"800"	"black"	"1"	"+"	"tool4.bmp"	"tool"	"0"	"l"	"a"	"369"
1	1	1	3	2	5	"toolRight"	1	"WITproc"	"l"	"a"	2	"WIT"	"no"	109	"l"	"whiteFace8.bmp"	"1000"	"white"	"2"	"+"	"tool1.bmp"	"tool"	"1"	"l"	"l"	"424"
1	1	1	3	2	5	"toolRight"	1	"WITproc"	"l"	"a"	2	"WIT"	"no"	110	"l"	"blackFace2.bmp"	"1200"	"black"	"1"	"+"	"tool3.bmp"	"tool"	"0"	"l"	"a"	"255"
1	1	1	3	2	5	"toolRight"	1	"WITproc"	"l"	"a"	2	"WIT"	"no"	111	"l"	"blackFace5.bmp"	"1200"	"black"	"3"	"TOO SLOW"	"tool1.bmp"	"tool"	"0"	"l"	""	"0"
1	1	1	3	2	5	"toolRight"	1	"WITproc"	"l"	"a"	2	"WIT"	"no"	112	"l"	"whiteFace3.bmp"	"800"	"white"	"1"	"+"	"tool4.bmp"	"tool"	"0"	"l"	"a"	"205"
1	1	1	3	2	5	"toolRight"	1	"WITproc"	"l"	"a"	2	"WIT"	"no"	113	"a"	"whiteFace8.bmp"	"1000"	"white"	"1"	"+"	"weapon3.bmp"	"weapon"	"0"	"a"	"l"	"60"
1	1	1	3	2	5	"toolRight"	1	"WITproc"	"l"	"a"	2	"WIT"	"no"	114	"l"	"whiteFace1.bmp"	"1000"	"white"	"1"	"+"	"tool1.bmp"	"tool"	"0"	"l"	"a"	"268"
1	1	1	3	2	5	"toolRight"	1	"WITproc"	"l"	"a"	2	"WIT"	"no"	115	"a"	"whiteFace8.bmp"	"1200"	"white"	"2"	"+"	"weapon4.bmp"	"weapon"	"1"	"a"	"a"	"187"
1	1	1	3	2	5	"toolRight"	1	"WITproc"	"l"	"a"	2	"WIT"	"no"	116	"l"	"blackFace2.bmp"	"800"	"black"	"2"	"+"	"tool1.bmp"	"tool"	"1"	"l"	"l"	"82"
1	1	1	3	2	5	"toolRight"	1	"WITproc"	"l"	"a"	2	"WIT"	"no"	117	"a"	"blackFace4.bmp"	"800"	"black"	"2"	"+"	"weapon4.bmp"	"weapon"	"1"	"a"	"a"	"154"
1	1	1	3	2	5	"toolRight"	1	"WITproc"	"l"	"a"	2	"WIT"	"no"	118	"a"	"whiteFace6.bmp"	"1200"	"white"	"2"	"+"	"weapon2.bmp"	"weapon"	"1"	"a"	"a"	"249"
1	1	1	3	2	5	"toolRight"	1	"WITproc"	"l"	"a"	2	"WIT"	"no"	119	"a"	"whiteFace6.bmp"	"1000"	"white"	"1"	"+"	"weapon3.bmp"	"weapon"	"0"	"a"	"l"	"153"
1	1	1	3	2	5	"toolRight"	1	"WITproc"	"l"	"a"	2	"WIT"	"no"	120	"a"	"blackFace6.bmp"	"1000"	"black"	"2"	"+"	"weapon4.bmp"	"weapon"	"1"	"a"	"a"	"144"
1	1	1	3	2	5	"toolRight"	1	"WITproc"	"l"	"a"	2	"WIT"	"no"	121	"a"	"blackFace5.bmp"	"800"	"black"	"2"	"+"	"weapon2.bmp"	"weapon"	"1"	"a"	"a"	"223"
1	1	1	3	2	5	"toolRight"	1	"WITproc"	"l"	"a"	2	"WIT"	"no"	122	"l"	"whiteFace8.bmp"	"1200"	"white"	"2"	"+"	"tool4.bmp"	"tool"	"1"	"l"	"l"	"151"
1	1	1	3	2	5	"toolRight"	1	"WITproc"	"l"	"a"	2	"WIT"	"no"	123	"l"	"whiteFace2.bmp"	"1200"	"white"	"1"	"+"	"tool3.bmp"	"tool"	"0"	"l"	"a"	"238"
1	1	1	3	2	5	"toolRight"	1	"WITproc"	"l"	"a"	2	"WIT"	"no"	124	"l"	"blackFace7.bmp"	"800"	"black"	"1"	"+"	"tool1.bmp"	"tool"	"0"	"l"	"a"	"325"
1	1	1	3	2	5	"toolRight"	1	"WITproc"	"l"	"a"	2	"WIT"	"no"	125	"a"	"whiteFace5.bmp"	"1000"	"white"	"3"	"TOO SLOW"	"weapon3.bmp"	"weapon"	"0"	"a"	""	"0"
1	1	1	3	2	5	"toolRight"	1	"WITproc"	"l"	"a"	2	"WIT"	"no"	126	"l"	"whiteFace5.bmp"	"800"	"white"	"1"	"+"	"tool3.bmp"	"tool"	"0"	"l"	"a"	"236"
1	1	1	3	2	5	"toolRight"	1	"WITproc"	"l"	"a"	2	"WIT"	"no"	127	"a"	"blackFace8.bmp"	"1000"	"black"	"2"	"+"	"weapon3.bmp"	"weapon"	"1"	"a"	"a"	"396"
1	1	1	3	2	5	"toolRight"	1	"WITproc"	"l"	"a"	2	"WIT"	"no"	128	"l"	"blackFace1.bmp"	"1200"	"black"	"2"	"+"	"tool2.bmp"	"tool"	"1"	"l"	"l"	"259"
1	1	1	3	2	5	"toolRight"	1	"WITproc"	"l"	"a"	2	"WIT"	"no"	129	"l"	"blackFace7.bmp"	"1000"	"black"	"1"	"+"	"tool2.bmp"	"tool"	"0"	"l"	"a"	"122"
1	1	1	3	2	5	"toolRight"	1	"WITproc"	"l"	"a"	2	"WIT"	"no"	130	"a"	"blackFace4.bmp"	"800"	"black"	"1"	"+"	"weapon3.bmp"	"weapon"	"0"	"a"	"l"	"194"
1	1	1	3	2	5	"toolRight"	1	"WITproc"	"l"	"a"	2	"WIT"	"no"	131	"l"	"whiteFace6.bmp"	"1200"	"white"	"1"	"+"	"tool4.bmp"	"tool"	"0"	"l"	"a"	"169"
1	1	1	3	2	5	"toolRight"	1	"WITproc"	"l"	"a"	2	"WIT"	"no"	132	"l"	"whiteFace6.bmp"	"800"	"white"	"2"	"+"	"tool2.bmp"	"tool"	"1"	"l"	"l"	"128"
1	1	1	3	2	5	"toolRight"	1	"WITproc"	"l"	"a"	2	"WIT"	"no"	133	"a"	"whiteFace8.bmp"	"1000"	"white"	"2"	"+"	"weapon2.bmp"	"weapon"	"1"	"a"	"a"	"304"
1	1	1	3	2	5	"toolRight"	1	"WITproc"	"l"	"a"	2	"WIT"	"no"	134	"l"	"whiteFace6.bmp"	"1200"	"white"	"1"	"+"	"tool1.bmp"	"tool"	"0"	"l"	"a"	"255"
1	1	1	3	2	5	"toolRight"	1	"WITproc"	"l"	"a"	2	"WIT"	"no"	135	"a"	"blackFace1.bmp"	"1000"	"black"	"1"	"+"	"weapon3.bmp"	"weapon"	"0"	"a"	"l"	"126"
1	1	1	3	2	5	"toolRight"	1	"WITproc"	"l"	"a"	2	"WIT"	"no"	136	"l"	"blackFace6.bmp"	"800"	"black"	"1"	"+"	"tool4.bmp"	"tool"	"0"	"l"	"a"	"238"
1	1	1	3	2	5	"toolRight"	1	"WITproc"	"l"	"a"	2	"WIT"	"no"	137	"l"	"whiteFace8.bmp"	"1200"	"white"	"1"	"+"	"tool4.bmp"	"tool"	"0"	"l"	"a"	"261"
1	1	1	3	2	5	"toolRight"	1	"WITproc"	"l"	"a"	2	"WIT"	"no"	138	"l"	"whiteFace7.bmp"	"800"	"white"	"2"	"+"	"tool4.bmp"	"tool"	"1"	"l"	"l"	"237"
1	1	1	3	2	5	"toolRight"	1	"WITproc"	"l"	"a"	2	"WIT"	"no"	139	"l"	"blackFace7.bmp"	"1200"	"black"	"1"	"+"	"tool4.bmp"	"tool"	"0"	"l"	"a"	"236"
1	1	1	3	2	5	"toolRight"	1	"WITproc"	"l"	"a"	2	"WIT"	"no"	140	"l"	"blackFace4.bmp"	"1000"	"black"	"1"	"+"	"tool1.bmp"	"tool"	"0"	"l"	"a"	"243"
1	1	1	3	2	5	"toolRight"	1	"WITproc"	"l"	"a"	2	"WIT"	"no"	141	"a"	"whiteFace6.bmp"	"1200"	"white"	"2"	"+"	"weapon1.bmp"	"weapon"	"1"	"a"	"a"	"195"
1	1	1	3	2	5	"toolRight"	1	"WITproc"	"l"	"a"	2	"WIT"	"no"	142	"a"	"blackFace4.bmp"	"1000"	"black"	"1"	"+"	"weapon2.bmp"	"weapon"	"0"	"a"	"l"	"186"
1	1	1	3	2	5	"toolRight"	1	"WITproc"	"l"	"a"	2	"WIT"	"no"	143	"l"	"whiteFace5.bmp"	"800"	"white"	"1"	"+"	"tool4.bmp"	"tool"	"0"	"l"	"a"	"192"
1	1	1	3	2	5	"toolRight"	1	"WITproc"	"l"	"a"	2	"WIT"	"no"	144	"a"	"blackFace5.bmp"	"1000"	"black"	"2"	"+"	"weapon1.bmp"	"weapon"	"1"	"a"	"a"	"296"
1	1	1	3	2	5	"toolRight"	1	"WITproc"	"l"	"a"	2	"WIT"	"no"	145	"l"	"whiteFace3.bmp"	"1200"	"white"	"2"	"+"	"tool1.bmp"	"tool"	"1"	"l"	"l"	"231"
1	1	1	3	2	5	"toolRight"	1	"WITproc"	"l"	"a"	2	"WIT"	"no"	146	"l"	"blackFace2.bmp"	"800"	"black"	"2"	"+"	"tool2.bmp"	"tool"	"1"	"l"	"l"	"198"
1	1	1	3	2	5	"toolRight"	1	"WITproc"	"l"	"a"	2	"WIT"	"no"	147	"a"	"whiteFace6.bmp"	"1200"	"white"	"2"	"+"	"weapon2.bmp"	"weapon"	"1"	"a"	"a"	"278"
1	1	1	3	2	5	"toolRight"	1	"WITproc"	"l"	"a"	2	"WIT"	"no"	148	"l"	"whiteFace4.bmp"	"1000"	"white"	"2"	"+"	"tool4.bmp"	"tool"	"1"	"l"	"l"	"221"
1	1	1	3	2	5	"toolRight"	1	"WITproc"	"l"	"a"	2	"WIT"	"no"	149	"l"	"blackFace7.bmp"	"800"	"black"	"2"	"+"	"tool3.bmp"	"tool"	"1"	"l"	"l"	"157"
1	1	1	3	2	5	"toolRight"	1	"WITproc"	"l"	"a"	2	"WIT"	"no"	150	"a"	"whiteFace1.bmp"	"1000"	"white"	"2"	"+"	"weapon4.bmp"	"weapon"	"1"	"a"	"a"	"236"
1	1	1	3	2	5	"toolRight"	1	"WITproc"	"l"	"a"	2	"WIT"	"no"	151	"l"	"blackFace2.bmp"	"800"	"black"	"1"	"+"	"tool4.bmp"	"tool"	"0"	"l"	"a"	"267"
1	1	1	3	2	5	"toolRight"	1	"WITproc"	"l"	"a"	2	"WIT"	"no"	152	"a"	"blackFace7.bmp"	"1200"	"black"	"2"	"+"	"weapon2.bmp"	"weapon"	"1"	"a"	"a"	"283"
1	1	1	3	2	5	"toolRight"	1	"WITproc"	"l"	"a"	2	"WIT"	"no"	153	"a"	"whiteFace4.bmp"	"1000"	"white"	"1"	"+"	"weapon2.bmp"	"weapon"	"0"	"a"	"l"	"146"
1	1	1	3	2	5	"toolRight"	1	"WITproc"	"l"	"a"	2	"WIT"	"no"	154	"a"	"blackFace8.bmp"	"800"	"black"	"2"	"+"	"weapon2.bmp"	"weapon"	"1"	"a"	"a"	"353"
1	1	1	3	2	5	"toolRight"	1	"WITproc"	"l"	"a"	2	"WIT"	"no"	155	"a"	"whiteFace2.bmp"	"1200"	"white"	"1"	"+"	"weapon1.bmp"	"weapon"	"0"	"a"	"l"	"233"
1	1	1	3	2	5	"toolRight"	1	"WITproc"	"l"	"a"	2	"WIT"	"no"	156	"a"	"whiteFace4.bmp"	"1000"	"white"	"2"	"+"	"weapon4.bmp"	"weapon"	"1"	"a"	"a"	"440"
1	1	1	3	2	5	"toolRight"	1	"WITproc"	"l"	"a"	2	"WIT"	"no"	157	"l"	"whiteFace5.bmp"	"1200"	"white"	"2"	"+"	"tool3.bmp"	"tool"	"1"	"l"	"l"	"399"
1	1	1	3	2	5	"toolRight"	1	"WITproc"	"l"	"a"	2	"WIT"	"no"	158	"l"	"blackFace1.bmp"	"800"	"black"	"1"	"+"	"tool4.bmp"	"tool"	"0"	"l"	"a"	"295"
1	1	1	3	2	5	"toolRight"	1	"WITproc"	"l"	"a"	2	"WIT"	"no"	159	"a"	"whiteFace5.bmp"	"1000"	"white"	"1"	"+"	"weapon3.bmp"	"weapon"	"0"	"a"	"l"	"374"
1	1	1	3	2	5	"toolRight"	1	"WITproc"	"l"	"a"	2	"WIT"	"no"	160	"l"	"blackFace3.bmp"	"800"	"black"	"2"	"+"	"tool3.bmp"	"tool"	"1"	"l"	"l"	"254"
1	1	1	3	2	5	"toolRight"	1	"WITproc"	"l"	"a"	2	"WIT"	"no"	161	"l"	"whiteFace1.bmp"	"1200"	"white"	"2"	"+"	"tool1.bmp"	"tool"	"1"	"l"	"l"	"341"
1	1	1	3	2	5	"toolRight"	1	"WITproc"	"l"	"a"	2	"WIT"	"no"	162	"l"	"whiteFace2.bmp"	"1000"	"white"	"2"	"+"	"tool3.bmp"	"tool"	"1"	"l"	"l"	"220"
1	1	1	3	2	5	"toolRight"	1	"WITproc"	"l"	"a"	2	"WIT"	"no"	163	"a"	"blackFace5.bmp"	"800"	"black"	"1"	"+"	"weapon4.bmp"	"weapon"	"0"	"a"	"l"	"284"
1	1	1	3	2	5	"toolRight"	1	"WITproc"	"l"	"a"	2	"WIT"	"no"	164	"l"	"whiteFace1.bmp"	"1200"	"white"	"2"	"+"	"tool2.bmp"	"tool"	"1"	"l"	"l"	"459"
1	1	1	3	2	5	"toolRight"	1	"WITproc"	"l"	"a"	2	"WIT"	"no"	165	"a"	"whiteFace3.bmp"	"1000"	"white"	"2"	"+"	"weapon1.bmp"	"weapon"	"1"	"a"	"a"	"250"
1	1	1	3	2	5	"toolRight"	1	"WITproc"	"l"	"a"	2	"WIT"	"no"	166	"a"	"blackFace6.bmp"	"800"	"black"	"2"	"+"	"weapon1.bmp"	"weapon"	"1"	"a"	"a"	"490"
1	1	1	3	2	5	"toolRight"	1	"WITproc"	"l"	"a"	2	"WIT"	"no"	167	"a"	"blackFace3.bmp"	"1200"	"black"	"2"	"+"	"weapon3.bmp"	"weapon"	"1"	"a"	"a"	"305"
1	1	1	3	2	5	"toolRight"	1	"WITproc"	"l"	"a"	2	"WIT"	"no"	168	"a"	"whiteFace1.bmp"	"1200"	"white"	"1"	"+"	"weapon1.bmp"	"weapon"	"0"	"a"	"l"	"184"
1	1	1	3	2	5	"toolRight"	1	"WITproc"	"l"	"a"	2	"WIT"	"no"	169	"a"	"whiteFace7.bmp"	"1000"	"white"	"2"	"+"	"weapon2.bmp"	"weapon"	"1"	"a"	"a"	"352"
1	1	1	3	2	5	"toolRight"	1	"WITproc"	"l"	"a"	2	"WIT"	"no"	170	"l"	"blackFace5.bmp"	"800"	"black"	"1"	"+"	"tool1.bmp"	"tool"	"0"	"l"	"a"	"255"
1	1	1	3	2	5	"toolRight"	1	"WITproc"	"l"	"a"	2	"WIT"	"no"	171	"l"	"whiteFace2.bmp"	"1200"	"white"	"2"	"+"	"tool2.bmp"	"tool"	"1"	"l"	"l"	"303"
1	1	1	3	2	5	"toolRight"	1	"WITproc"	"l"	"a"	2	"WIT"	"no"	172	"a"	"whiteFace8.bmp"	"1000"	"white"	"1"	"+"	"weapon1.bmp"	"weapon"	"0"	"a"	"l"	"245"
1	1	1	3	2	5	"toolRight"	1	"WITproc"	"l"	"a"	2	"WIT"	"no"	173	"a"	"blackFace4.bmp"	"800"	"black"	"1"	"+"	"weapon4.bmp"	"weapon"	"0"	"a"	"l"	"157"
1	1	1	3	2	5	"toolRight"	1	"WITproc"	"l"	"a"	2	"WIT"	"no"	174	"l"	"whiteFace1.bmp"	"800"	"white"	"1"	"+"	"tool4.bmp"	"tool"	"0"	"l"	"a"	"308"
1	1	1	3	2	5	"toolRight"	1	"WITproc"	"l"	"a"	2	"WIT"	"no"	175	"l"	"blackFace6.bmp"	"1000"	"black"	"1"	"+"	"tool1.bmp"	"tool"	"0"	"l"	"a"	"339"
1	1	1	3	2	5	"toolRight"	1	"WITproc"	"l"	"a"	2	"WIT"	"no"	176	"a"	"blackFace5.bmp"	"1200"	"black"	"2"	"+"	"weapon2.bmp"	"weapon"	"1"	"a"	"a"	"354"
1	1	1	3	2	5	"toolRight"	1	"WITproc"	"l"	"a"	2	"WIT"	"no"	177	"l"	"whiteFace3.bmp"	"800"	"white"	"1"	"+"	"tool4.bmp"	"tool"	"0"	"l"	"a"	"346"
1	1	1	3	2	5	"toolRight"	1	"WITproc"	"l"	"a"	2	"WIT"	"no"	178	"a"	"whiteFace7.bmp"	"1000"	"white"	"2"	"+"	"weapon4.bmp"	"weapon"	"1"	"a"	"a"	"297"
1	1	1	3	2	5	"toolRight"	1	"WITproc"	"l"	"a"	2	"WIT"	"no"	179	"a"	"blackFace3.bmp"	"1200"	"black"	"2"	"+"	"weapon1.bmp"	"weapon"	"1"	"a"	"a"	"184"
1	1	1	3	2	5	"toolRight"	1	"WITproc"	"l"	"a"	2	"WIT"	"no"	180	"a"	"blackFace5.bmp"	"800"	"black"	"1"	"+"	"weapon3.bmp"	"weapon"	"0"	"a"	"l"	"208"
1	1	1	3	2	5	"toolRight"	1	"WITproc"	"l"	"a"	2	"WIT"	"no"	181	"l"	"blackFace4.bmp"	"1200"	"black"	"1"	"+"	"tool2.bmp"	"tool"	"0"	"l"	"a"	"143"
1	1	1	3	2	5	"toolRight"	1	"WITproc"	"l"	"a"	2	"WIT"	"no"	182	"a"	"whiteFace7.bmp"	"1000"	"white"	"2"	"+"	"weapon3.bmp"	"weapon"	"1"	"a"	"a"	"311"
1	1	1	3	2	5	"toolRight"	1	"WITproc"	"l"	"a"	2	"WIT"	"no"	183	"l"	"blackFace8.bmp"	"1000"	"black"	"1"	"+"	"tool3.bmp"	"tool"	"0"	"l"	"a"	"334"
1	1	1	3	2	5	"toolRight"	1	"WITproc"	"l"	"a"	2	"WIT"	"no"	184	"l"	"blackFace1.bmp"	"800"	"black"	"1"	"+"	"tool1.bmp"	"tool"	"0"	"l"	"a"	"349"
1	1	1	3	2	5	"toolRight"	1	"WITproc"	"l"	"a"	2	"WIT"	"no"	185	"a"	"blackFace7.bmp"	"1200"	"black"	"2"	"+"	"weapon4.bmp"	"weapon"	"1"	"a"	"a"	"445"
1	1	1	3	2	5	"toolRight"	1	"WITproc"	"l"	"a"	2	"WIT"	"no"	186	"l"	"blackFace6.bmp"	"1000"	"black"	"3"	"TOO SLOW"	"tool2.bmp"	"tool"	"0"	"l"	""	"0"
1	1	1	3	2	5	"toolRight"	1	"WITproc"	"l"	"a"	2	"WIT"	"no"	187	"a"	"whiteFace2.bmp"	"1200"	"white"	"2"	"+"	"weapon3.bmp"	"weapon"	"1"	"a"	"a"	"331"
1	1	1	3	2	5	"toolRight"	1	"WITproc"	"l"	"a"	2	"WIT"	"no"	188	"l"	"blackFace1.bmp"	"800"	"black"	"2"	"+"	"tool3.bmp"	"tool"	"1"	"l"	"l"	"179"
1	1	1	3	2	5	"toolRight"	1	"WITproc"	"l"	"a"	2	"WIT"	"no"	189	"a"	"blackFace7.bmp"	"1200"	"black"	"1"	"+"	"weapon1.bmp"	"weapon"	"0"	"a"	"l"	"410"
1	1	1	3	2	5	"toolRight"	1	"WITproc"	"l"	"a"	2	"WIT"	"no"	190	"a"	"blackFace2.bmp"	"800"	"black"	"1"	"+"	"weapon2.bmp"	"weapon"	"0"	"a"	"l"	"498"
1	1	1	3	2	5	"toolRight"	1	"WITproc"	"l"	"a"	2	"WIT"	"no"	191	"a"	"whiteFace3.bmp"	"1000"	"white"	"2"	"+"	"weapon2.bmp"	"weapon"	"1"	"a"	"a"	"209"
1	1	1	3	2	5	"toolRight"	1	"WITproc"	"l"	"a"	2	"WIT"	"no"	192	"l"	"whiteFace2.bmp"	"800"	"white"	"1"	"+"	"tool4.bmp"	"tool"	"0"	"l"	"a"	"280"
1	1	1	3	2	5	"toolRight"	1	"WITproc"	"l"	"a"	3	"PostWITquestions"	"no"	1	"NULL"	"NULL"	"NULL"	"NULL"	"NULL"	"NULL"	"NULL"	"NULL"	"NULL"	"NULL"	"NULL"	"NULL"
1	1	1	3	2	5	"toolRight"	1	"WITproc"	"l"	"a"	3	"PostWITquestions"	"no"	2	"NULL"	"NULL"	"NULL"	"NULL"	"NULL"	"NULL"	"NULL"	"NULL"	"NULL"	"NULL"	"NULL"	"NULL"
1	1	1	3	2	5	"toolRight"	1	"WITproc"	"l"	"a"	3	"PostWITquestions"	"no"	3	"NULL"	"NULL"	"NULL"	"NULL"	"NULL"	"NULL"	"NULL"	"NULL"	"NULL"	"NULL"	"NULL"	"NULL"
1	1	1	3	2	5	"toolRight"	1	"WITproc"	"l"	"a"	3	"PostWITquestions"	"no"	4	"NULL"	"NULL"	"NULL"	"NULL"	"NULL"	"NULL"	"NULL"	"NULL"	"NULL"	"NULL"	"NULL"	"NULL"
1	1	1	3	2	5	"toolRight"	1	"WITproc"	"l"	"a"	3	"PostWITquestions"	"no"	5	"NULL"	"NULL"	"NULL"	"NULL"	"NULL"	"NULL"	"NULL"	"NULL"	"NULL"	"NULL"	"NULL"	"NULL"
2	1	3	2	2	5	"toolLeft"	1	"WITproc"	"a"	"l"	1	"practiceWIT"	"yes"	1	"l"	"blackFace4.bmp"	"800"	"black"	"3"	"TOO SLOW"	"weapon3.bmp"	"weapon"	"0"	"l"	""	"0"
2	1	3	2	2	5	"toolLeft"	1	"WITproc"	"a"	"l"	1	"practiceWIT"	"yes"	2	"l"	"whiteFace2.bmp"	"1000"	"white"	"3"	"TOO SLOW"	"weapon3.bmp"	"weapon"	"0"	"l"	""	"0"
2	1	3	2	2	5	"toolLeft"	1	"WITproc"	"a"	"l"	1	"practiceWIT"	"yes"	3	"a"	"whiteFace5.bmp"	"1200"	"white"	"1"	"+"	"tool2.bmp"	"tool"	"0"	"a"	"l"	"173"
2	1	3	2	2	5	"toolLeft"	1	"WITproc"	"a"	"l"	1	"practiceWIT"	"yes"	4	"l"	"whiteFace6.bmp"	"1200"	"white"	"1"	"+"	"weapon4.bmp"	"weapon"	"0"	"l"	"a"	"244"
2	1	3	2	2	5	"toolLeft"	1	"WITproc"	"a"	"l"	1	"practiceWIT"	"yes"	5	"a"	"blackFace6.bmp"	"1000"	"black"	"2"	"+"	"tool4.bmp"	"tool"	"1"	"a"	"a"	"300"
2	1	3	2	2	5	"toolLeft"	1	"WITproc"	"a"	"l"	1	"practiceWIT"	"yes"	6	"l"	"blackFace7.bmp"	"800"	"black"	"3"	"TOO SLOW"	"weapon2.bmp"	"weapon"	"0"	"l"	""	"0"
2	1	3	2	2	5	"toolLeft"	1	"WITproc"	"a"	"l"	1	"practiceWIT"	"yes"	7	"l"	"blackFace5.bmp"	"1200"	"black"	"2"	"+"	"weapon1.bmp"	"weapon"	"1"	"l"	"l"	"266"
2	1	3	2	2	5	"toolLeft"	1	"WITproc"	"a"	"l"	1	"practiceWIT"	"yes"	8	"l"	"whiteFace5.bmp"	"1000"	"white"	"1"	"+"	"weapon2.bmp"	"weapon"	"0"	"l"	"a"	"297"
2	1	3	2	2	5	"toolLeft"	1	"WITproc"	"a"	"l"	1	"practiceWIT"	"yes"	9	"a"	"blackFace5.bmp"	"800"	"black"	"3"	"TOO SLOW"	"tool1.bmp"	"tool"	"0"	"a"	""	"0"
2	1	3	2	2	5	"toolLeft"	1	"WITproc"	"a"	"l"	1	"practiceWIT"	"yes"	10	"a"	"whiteFace7.bmp"	"1000"	"white"	"3"	"TOO SLOW"	"tool2.bmp"	"tool"	"0"	"a"	""	"0"
2	1	3	2	2	5	"toolLeft"	1	"WITproc"	"a"	"l"	1	"practiceWIT"	"yes"	11	"a"	"blackFace1.bmp"	"800"	"black"	"2"	"+"	"tool1.bmp"	"tool"	"1"	"a"	"a"	"223"
2	1	3	2	2	5	"toolLeft"	1	"WITproc"	"a"	"l"	1	"practiceWIT"	"yes"	12	"l"	"whiteFace5.bmp"	"1200"	"white"	"1"	"+"	"weapon1.bmp"	"weapon"	"0"	"l"	"a"	"423"
2	1	3	2	2	5	"toolLeft"	1	"WITproc"	"a"	"l"	1	"practiceWIT"	"yes"	13	"a"	"whiteFace8.bmp"	"800"	"white"	"1"	"+"	"tool3.bmp"	"tool"	"0"	"a"	"l"	"198"
2	1	3	2	2	5	"toolLeft"	1	"WITproc"	"a"	"l"	1	"practiceWIT"	"yes"	14	"a"	"blackFace4.bmp"	"1200"	"black"	"3"	"TOO SLOW"	"tool4.bmp"	"tool"	"0"	"a"	""	"0"
2	1	3	2	2	5	"toolLeft"	1	"WITproc"	"a"	"l"	1	"practiceWIT"	"yes"	15	"l"	"blackFace5.bmp"	"1000"	"black"	"1"	"+"	"weapon1.bmp"	"weapon"	"0"	"l"	"a"	"340"
2	1	3	2	2	5	"toolLeft"	1	"WITproc"	"a"	"l"	1	"practiceWIT"	"yes"	16	"a"	"whiteFace4.bmp"	"1200"	"white"	"3"	"TOO SLOW"	"tool4.bmp"	"tool"	"0"	"a"	""	"0"
2	1	3	2	2	5	"toolLeft"	1	"WITproc"	"a"	"l"	2	"WIT"	"no"	1	"a"	"whiteFace6.bmp"	"800"	"white"	"2"	"+"	"tool1.bmp"	"tool"	"1"	"a"	"a"	"333"
2	1	3	2	2	5	"toolLeft"	1	"WITproc"	"a"	"l"	2	"WIT"	"no"	2	"l"	"whiteFace4.bmp"	"1000"	"white"	"2"	"+"	"weapon2.bmp"	"weapon"	"1"	"l"	"l"	"348"
2	1	3	2	2	5	"toolLeft"	1	"WITproc"	"a"	"l"	2	"WIT"	"no"	3	"a"	"whiteFace1.bmp"	"1200"	"white"	"2"	"+"	"tool2.bmp"	"tool"	"1"	"a"	"a"	"260"
2	1	3	2	2	5	"toolLeft"	1	"WITproc"	"a"	"l"	2	"WIT"	"no"	4	"a"	"blackFace6.bmp"	"800"	"black"	"2"	"+"	"tool1.bmp"	"tool"	"1"	"a"	"a"	"243"
2	1	3	2	2	5	"toolLeft"	1	"WITproc"	"a"	"l"	2	"WIT"	"no"	5	"l"	"whiteFace1.bmp"	"1000"	"white"	"2"	"+"	"weapon3.bmp"	"weapon"	"1"	"l"	"l"	"371"
2	1	3	2	2	5	"toolLeft"	1	"WITproc"	"a"	"l"	2	"WIT"	"no"	6	"l"	"whiteFace8.bmp"	"1200"	"white"	"2"	"+"	"weapon3.bmp"	"weapon"	"1"	"l"	"l"	"450"
2	1	3	2	2	5	"toolLeft"	1	"WITproc"	"a"	"l"	2	"WIT"	"no"	7	"a"	"blackFace3.bmp"	"800"	"black"	"1"	"+"	"tool1.bmp"	"tool"	"0"	"a"	"l"	"273"
2	1	3	2	2	5	"toolLeft"	1	"WITproc"	"a"	"l"	2	"WIT"	"no"	8	"a"	"whiteFace8.bmp"	"1000"	"white"	"1"	"+"	"tool3.bmp"	"tool"	"0"	"a"	"l"	"457"
2	1	3	2	2	5	"toolLeft"	1	"WITproc"	"a"	"l"	2	"WIT"	"no"	9	"l"	"blackFace2.bmp"	"800"	"black"	"1"	"+"	"weapon2.bmp"	"weapon"	"0"	"l"	"a"	"368"
2	1	3	2	2	5	"toolLeft"	1	"WITproc"	"a"	"l"	2	"WIT"	"no"	10	"a"	"blackFace1.bmp"	"1200"	"black"	"2"	"+"	"tool4.bmp"	"tool"	"1"	"a"	"a"	"447"
2	1	3	2	2	5	"toolLeft"	1	"WITproc"	"a"	"l"	2	"WIT"	"no"	11	"l"	"blackFace7.bmp"	"1000"	"black"	"2"	"+"	"weapon3.bmp"	"weapon"	"1"	"l"	"l"	"390"
2	1	3	2	2	5	"toolLeft"	1	"WITproc"	"a"	"l"	2	"WIT"	"no"	12	"a"	"whiteFace7.bmp"	"1200"	"white"	"2"	"+"	"tool1.bmp"	"tool"	"1"	"a"	"a"	"365"
2	1	3	2	2	5	"toolLeft"	1	"WITproc"	"a"	"l"	2	"WIT"	"no"	13	"l"	"whiteFace1.bmp"	"800"	"white"	"3"	"TOO SLOW"	"weapon4.bmp"	"weapon"	"0"	"l"	""	"0"
2	1	3	2	2	5	"toolLeft"	1	"WITproc"	"a"	"l"	2	"WIT"	"no"	14	"l"	"blackFace1.bmp"	"1000"	"black"	"2"	"+"	"weapon1.bmp"	"weapon"	"1"	"l"	"l"	"371"
2	1	3	2	2	5	"toolLeft"	1	"WITproc"	"a"	"l"	2	"WIT"	"no"	15	"l"	"blackFace3.bmp"	"800"	"black"	"2"	"+"	"weapon2.bmp"	"weapon"	"1"	"l"	"l"	"290"
2	1	3	2	2	5	"toolLeft"	1	"WITproc"	"a"	"l"	2	"WIT"	"no"	16	"l"	"blackFace5.bmp"	"1200"	"black"	"2"	"+"	"weapon2.bmp"	"weapon"	"1"	"l"	"l"	"466"
2	1	3	2	2	5	"toolLeft"	1	"WITproc"	"a"	"l"	2	"WIT"	"no"	17	"l"	"blackFace8.bmp"	"1000"	"black"	"2"	"+"	"weapon3.bmp"	"weapon"	"1"	"l"	"l"	"433"
2	1	3	2	2	5	"toolLeft"	1	"WITproc"	"a"	"l"	2	"WIT"	"no"	18	"a"	"blackFace4.bmp"	"1200"	"black"	"1"	"+"	"tool2.bmp"	"tool"	"0"	"a"	"l"	"417"
2	1	3	2	2	5	"toolLeft"	1	"WITproc"	"a"	"l"	2	"WIT"	"no"	19	"l"	"whiteFace7.bmp"	"800"	"white"	"1"	"+"	"weapon2.bmp"	"weapon"	"0"	"l"	"a"	"232"
2	1	3	2	2	5	"toolLeft"	1	"WITproc"	"a"	"l"	2	"WIT"	"no"	20	"a"	"blackFace3.bmp"	"1000"	"black"	"2"	"+"	"tool4.bmp"	"tool"	"1"	"a"	"a"	"447"
2	1	3	2	2	5	"toolLeft"	1	"WITproc"	"a"	"l"	2	"WIT"	"no"	21	"a"	"blackFace7.bmp"	"800"	"black"	"1"	"+"	"tool1.bmp"	"tool"	"0"	"a"	"l"	"407"
2	1	3	2	2	5	"toolLeft"	1	"WITproc"	"a"	"l"	2	"WIT"	"no"	22	"l"	"whiteFace4.bmp"	"1000"	"white"	"3"	"TOO SLOW"	"weapon3.bmp"	"weapon"	"0"	"l"	""	"0"
2	1	3	2	2	5	"toolLeft"	1	"WITproc"	"a"	"l"	2	"WIT"	"no"	23	"a"	"whiteFace2.bmp"	"1200"	"white"	"2"	"+"	"tool4.bmp"	"tool"	"1"	"a"	"a"	"381"
2	1	3	2	2	5	"toolLeft"	1	"WITproc"	"a"	"l"	2	"WIT"	"no"	24	"l"	"whiteFace5.bmp"	"1000"	"white"	"2"	"+"	"weapon3.bmp"	"weapon"	"1"	"l"	"l"	"325"
2	1	3	2	2	5	"toolLeft"	1	"WITproc"	"a"	"l"	2	"WIT"	"no"	25	"a"	"whiteFace2.bmp"	"800"	"white"	"3"	"TOO SLOW"	"tool3.bmp"	"tool"	"0"	"a"	""	"0"
2	1	3	2	2	5	"toolLeft"	1	"WITproc"	"a"	"l"	2	"WIT"	"no"	26	"a"	"blackFace3.bmp"	"1200"	"black"	"2"	"+"	"tool2.bmp"	"tool"	"1"	"a"	"a"	"292"
2	1	3	2	2	5	"toolLeft"	1	"WITproc"	"a"	"l"	2	"WIT"	"no"	27	"l"	"whiteFace2.bmp"	"800"	"white"	"2"	"+"	"weapon3.bmp"	"weapon"	"1"	"l"	"l"	"355"
2	1	3	2	2	5	"toolLeft"	1	"WITproc"	"a"	"l"	2	"WIT"	"no"	28	"a"	"whiteFace4.bmp"	"1200"	"white"	"2"	"+"	"tool3.bmp"	"tool"	"1"	"a"	"a"	"458"
2	1	3	2	2	5	"toolLeft"	1	"WITproc"	"a"	"l"	2	"WIT"	"no"	29	"l"	"whiteFace6.bmp"	"1000"	"white"	"1"	"+"	"weapon4.bmp"	"weapon"	"0"	"l"	"a"	"458"
2	1	3	2	2	5	"toolLeft"	1	"WITproc"	"a"	"l"	2	"WIT"	"no"	30	"l"	"blackFace3.bmp"	"800"	"black"	"1"	"+"	"weapon3.bmp"	"weapon"	"0"	"l"	"a"	"441"
2	1	3	2	2	5	"toolLeft"	1	"WITproc"	"a"	"l"	2	"WIT"	"no"	31	"a"	"whiteFace1.bmp"	"1200"	"white"	"2"	"+"	"tool3.bmp"	"tool"	"1"	"a"	"a"	"400"
2	1	3	2	2	5	"toolLeft"	1	"WITproc"	"a"	"l"	2	"WIT"	"no"	32	"l"	"whiteFace7.bmp"	"1000"	"white"	"2"	"+"	"weapon4.bmp"	"weapon"	"1"	"l"	"l"	"304"
2	1	3	2	2	5	"toolLeft"	1	"WITproc"	"a"	"l"	2	"WIT"	"no"	33	"a"	"whiteFace3.bmp"	"1200"	"white"	"2"	"+"	"tool3.bmp"	"tool"	"1"	"a"	"a"	"367"
2	1	3	2	2	5	"toolLeft"	1	"WITproc"	"a"	"l"	2	"WIT"	"no"	34	"a"	"whiteFace7.bmp"	"800"	"white"	"2"	"+"	"tool2.bmp"	"tool"	"1"	"a"	"a"	"390"
2	1	3	2	2	5	"toolLeft"	1	"WITproc"	"a"	"l"	2	"WIT"	"no"	35	"l"	"whiteFace8.bmp"	"1000"	"white"	"1"	"+"	"weapon2.bmp"	"weapon"	"0"	"l"	"a"	"254"
2	1	3	2	2	5	"toolLeft"	1	"WITproc"	"a"	"l"	2	"WIT"	"no"	36	"l"	"whiteFace3.bmp"	"800"	"white"	"3"	"TOO SLOW"	"weapon3.bmp"	"weapon"	"0"	"l"	""	"0"
2	1	3	2	2	5	"toolLeft"	1	"WITproc"	"a"	"l"	2	"WIT"	"no"	37	"a"	"blackFace8.bmp"	"1000"	"black"	"2"	"+"	"tool4.bmp"	"tool"	"1"	"a"	"a"	"437"
2	1	3	2	2	5	"toolLeft"	1	"WITproc"	"a"	"l"	2	"WIT"	"no"	38	"a"	"blackFace2.bmp"	"1200"	"black"	"3"	"TOO SLOW"	"tool1.bmp"	"tool"	"0"	"a"	""	"0"
2	1	3	2	2	5	"toolLeft"	1	"WITproc"	"a"	"l"	2	"WIT"	"no"	39	"a"	"blackFace7.bmp"	"1200"	"black"	"2"	"+"	"tool3.bmp"	"tool"	"1"	"a"	"a"	"347"
2	1	3	2	2	5	"toolLeft"	1	"WITproc"	"a"	"l"	2	"WIT"	"no"	40	"a"	"blackFace5.bmp"	"1000"	"black"	"2"	"+"	"tool3.bmp"	"tool"	"1"	"a"	"a"	"395"
2	1	3	2	2	5	"toolLeft"	1	"WITproc"	"a"	"l"	2	"WIT"	"no"	41	"l"	"blackFace4.bmp"	"800"	"black"	"2"	"+"	"weapon2.bmp"	"weapon"	"1"	"l"	"l"	"394"
2	1	3	2	2	5	"toolLeft"	1	"WITproc"	"a"	"l"	2	"WIT"	"no"	42	"a"	"whiteFace8.bmp"	"1000"	"white"	"2"	"+"	"tool1.bmp"	"tool"	"1"	"a"	"a"	"488"
2	1	3	2	2	5	"toolLeft"	1	"WITproc"	"a"	"l"	2	"WIT"	"no"	43	"a"	"whiteFace1.bmp"	"800"	"white"	"2"	"+"	"tool4.bmp"	"tool"	"1"	"a"	"a"	"393"
2	1	3	2	2	5	"toolLeft"	1	"WITproc"	"a"	"l"	2	"WIT"	"no"	44	"l"	"blackFace3.bmp"	"1200"	"black"	"2"	"+"	"weapon1.bmp"	"weapon"	"1"	"l"	"l"	"344"
2	1	3	2	2	5	"toolLeft"	1	"WITproc"	"a"	"l"	2	"WIT"	"no"	45	"l"	"blackFace2.bmp"	"800"	"black"	"2"	"+"	"weapon4.bmp"	"weapon"	"1"	"l"	"l"	"398"
2	1	3	2	2	5	"toolLeft"	1	"WITproc"	"a"	"l"	2	"WIT"	"no"	46	"l"	"whiteFace7.bmp"	"1000"	"white"	"1"	"+"	"weapon3.bmp"	"weapon"	"0"	"l"	"a"	"374"
2	1	3	2	2	5	"toolLeft"	1	"WITproc"	"a"	"l"	2	"WIT"	"no"	47	"a"	"blackFace8.bmp"	"1200"	"black"	"2"	"+"	"tool2.bmp"	"tool"	"1"	"a"	"a"	"437"
2	1	3	2	2	5	"toolLeft"	1	"WITproc"	"a"	"l"	2	"WIT"	"no"	48	"l"	"blackFace7.bmp"	"800"	"black"	"1"	"+"	"weapon2.bmp"	"weapon"	"0"	"l"	"a"	"221"
2	1	3	2	2	5	"toolLeft"	1	"WITproc"	"a"	"l"	2	"WIT"	"no"	49	"a"	"blackFace4.bmp"	"1000"	"black"	"1"	"+"	"tool4.bmp"	"tool"	"0"	"a"	"l"	"284"
2	1	3	2	2	5	"toolLeft"	1	"WITproc"	"a"	"l"	2	"WIT"	"no"	50	"l"	"whiteFace4.bmp"	"1200"	"white"	"2"	"+"	"weapon1.bmp"	"weapon"	"1"	"l"	"l"	"451"
2	1	3	2	2	5	"toolLeft"	1	"WITproc"	"a"	"l"	2	"WIT"	"no"	51	"l"	"blackFace4.bmp"	"800"	"black"	"2"	"+"	"weapon1.bmp"	"weapon"	"1"	"l"	"l"	"323"
2	1	3	2	2	5	"toolLeft"	1	"WITproc"	"a"	"l"	2	"WIT"	"no"	52	"a"	"blackFace2.bmp"	"1000"	"black"	"2"	"+"	"tool2.bmp"	"tool"	"1"	"a"	"a"	"418"
2	1	3	2	2	5	"toolLeft"	1	"WITproc"	"a"	"l"	2	"WIT"	"no"	53	"l"	"blackFace5.bmp"	"1200"	"black"	"2"	"+"	"weapon4.bmp"	"weapon"	"1"	"l"	"l"	"433"
2	1	3	2	2	5	"toolLeft"	1	"WITproc"	"a"	"l"	2	"WIT"	"no"	54	"a"	"whiteFace1.bmp"	"800"	"white"	"2"	"+"	"tool1.bmp"	"tool"	"1"	"a"	"a"	"417"
2	1	3	2	2	5	"toolLeft"	1	"WITproc"	"a"	"l"	2	"WIT"	"no"	55	"l"	"blackFace8.bmp"	"1200"	"black"	"1"	"+"	"weapon2.bmp"	"weapon"	"0"	"l"	"a"	"408"
2	1	3	2	2	5	"toolLeft"	1	"WITproc"	"a"	"l"	2	"WIT"	"no"	56	"a"	"blackFace4.bmp"	"1000"	"black"	"2"	"+"	"tool1.bmp"	"tool"	"1"	"a"	"a"	"471"
2	1	3	2	2	5	"toolLeft"	1	"WITproc"	"a"	"l"	2	"WIT"	"no"	57	"l"	"blackFace6.bmp"	"800"	"black"	"2"	"+"	"weapon1.bmp"	"weapon"	"1"	"l"	"l"	"375"
2	1	3	2	2	5	"toolLeft"	1	"WITproc"	"a"	"l"	2	"WIT"	"no"	58	"a"	"whiteFace2.bmp"	"1200"	"white"	"2"	"+"	"tool2.bmp"	"tool"	"1"	"a"	"a"	"414"
2	1	3	2	2	5	"toolLeft"	1	"WITproc"	"a"	"l"	2	"WIT"	"no"	59	"a"	"whiteFace4.bmp"	"1000"	"white"	"2"	"+"	"tool2.bmp"	"tool"	"1"	"a"	"a"	"390"
2	1	3	2	2	5	"toolLeft"	1	"WITproc"	"a"	"l"	2	"WIT"	"no"	60	"a"	"whiteFace3.bmp"	"800"	"white"	"1"	"+"	"tool1.bmp"	"tool"	"0"	"a"	"l"	"437"
2	1	3	2	2	5	"toolLeft"	1	"WITproc"	"a"	"l"	2	"WIT"	"no"	61	"l"	"blackFace7.bmp"	"1000"	"black"	"1"	"+"	"weapon1.bmp"	"weapon"	"0"	"l"	"a"	"356"
2	1	3	2	2	5	"toolLeft"	1	"WITproc"	"a"	"l"	2	"WIT"	"no"	62	"l"	"whiteFace4.bmp"	"1200"	"white"	"2"	"+"	"weapon4.bmp"	"weapon"	"1"	"l"	"l"	"380"
2	1	3	2	2	5	"toolLeft"	1	"WITproc"	"a"	"l"	2	"WIT"	"no"	63	"l"	"whiteFace6.bmp"	"800"	"white"	"2"	"+"	"weapon1.bmp"	"weapon"	"1"	"l"	"l"	"379"
2	1	3	2	2	5	"toolLeft"	1	"WITproc"	"a"	"l"	2	"WIT"	"no"	64	"a"	"blackFace7.bmp"	"1000"	"black"	"2"	"+"	"tool4.bmp"	"tool"	"1"	"a"	"a"	"458"
2	1	3	2	2	5	"toolLeft"	1	"WITproc"	"a"	"l"	2	"WIT"	"no"	65	"a"	"whiteFace5.bmp"	"1200"	"white"	"2"	"+"	"tool2.bmp"	"tool"	"1"	"a"	"a"	"234"
2	1	3	2	2	5	"toolLeft"	1	"WITproc"	"a"	"l"	2	"WIT"	"no"	66	"a"	"whiteFace8.bmp"	"1000"	"white"	"2"	"+"	"tool4.bmp"	"tool"	"1"	"a"	"a"	"457"
2	1	3	2	2	5	"toolLeft"	1	"WITproc"	"a"	"l"	2	"WIT"	"no"	67	"l"	"blackFace5.bmp"	"1200"	"black"	"1"	"+"	"weapon1.bmp"	"weapon"	"0"	"l"	"a"	"320"
2	1	3	2	2	5	"toolLeft"	1	"WITproc"	"a"	"l"	2	"WIT"	"no"	68	"a"	"blackFace8.bmp"	"800"	"black"	"1"	"+"	"tool1.bmp"	"tool"	"0"	"a"	"l"	"416"
2	1	3	2	2	5	"toolLeft"	1	"WITproc"	"a"	"l"	2	"WIT"	"no"	69	"a"	"blackFace6.bmp"	"800"	"black"	"2"	"+"	"tool4.bmp"	"tool"	"1"	"a"	"a"	"471"
2	1	3	2	2	5	"toolLeft"	1	"WITproc"	"a"	"l"	2	"WIT"	"no"	70	"l"	"whiteFace5.bmp"	"1200"	"white"	"2"	"+"	"weapon2.bmp"	"weapon"	"1"	"l"	"l"	"463"
2	1	3	2	2	5	"toolLeft"	1	"WITproc"	"a"	"l"	2	"WIT"	"no"	71	"l"	"whiteFace3.bmp"	"1000"	"white"	"2"	"+"	"weapon2.bmp"	"weapon"	"1"	"l"	"l"	"390"
2	1	3	2	2	5	"toolLeft"	1	"WITproc"	"a"	"l"	2	"WIT"	"no"	72	"l"	"blackFace1.bmp"	"800"	"black"	"2"	"+"	"weapon3.bmp"	"weapon"	"1"	"l"	"l"	"429"
2	1	3	2	2	5	"toolLeft"	1	"WITproc"	"a"	"l"	2	"WIT"	"no"	73	"a"	"whiteFace7.bmp"	"1200"	"white"	"3"	"TOO SLOW"	"tool4.bmp"	"tool"	"0"	"a"	""	"0"
2	1	3	2	2	5	"toolLeft"	1	"WITproc"	"a"	"l"	2	"WIT"	"no"	74	"l"	"whiteFace7.bmp"	"1000"	"white"	"1"	"+"	"weapon1.bmp"	"weapon"	"0"	"l"	"a"	"267"
2	1	3	2	2	5	"toolLeft"	1	"WITproc"	"a"	"l"	2	"WIT"	"no"	75	"l"	"blackFace1.bmp"	"800"	"black"	"2"	"+"	"weapon2.bmp"	"weapon"	"1"	"l"	"l"	"347"
2	1	3	2	2	5	"toolLeft"	1	"WITproc"	"a"	"l"	2	"WIT"	"no"	76	"a"	"blackFace5.bmp"	"1000"	"black"	"2"	"+"	"tool2.bmp"	"tool"	"1"	"a"	"a"	"466"
2	1	3	2	2	5	"toolLeft"	1	"WITproc"	"a"	"l"	2	"WIT"	"no"	77	"a"	"blackFace1.bmp"	"1200"	"black"	"3"	"TOO SLOW"	"tool3.bmp"	"tool"	"0"	"a"	""	"0"
2	1	3	2	2	5	"toolLeft"	1	"WITproc"	"a"	"l"	2	"WIT"	"no"	78	"l"	"blackFace7.bmp"	"800"	"black"	"1"	"+"	"weapon4.bmp"	"weapon"	"0"	"l"	"a"	"256"
2	1	3	2	2	5	"toolLeft"	1	"WITproc"	"a"	"l"	2	"WIT"	"no"	79	"l"	"blackFace6.bmp"	"1200"	"black"	"1"	"+"	"weapon2.bmp"	"weapon"	"0"	"l"	"a"	"384"
2	1	3	2	2	5	"toolLeft"	1	"WITproc"	"a"	"l"	2	"WIT"	"no"	80	"a"	"blackFace1.bmp"	"1000"	"black"	"2"	"+"	"tool1.bmp"	"tool"	"1"	"a"	"a"	"399"
2	1	3	2	2	5	"toolLeft"	1	"WITproc"	"a"	"l"	2	"WIT"	"no"	81	"l"	"whiteFace2.bmp"	"800"	"white"	"1"	"+"	"weapon4.bmp"	"weapon"	"0"	"l"	"a"	"335"
2	1	3	2	2	5	"toolLeft"	1	"WITproc"	"a"	"l"	2	"WIT"	"no"	82	"a"	"blackFace8.bmp"	"1200"	"black"	"2"	"+"	"tool3.bmp"	"tool"	"1"	"a"	"a"	"454"
2	1	3	2	2	5	"toolLeft"	1	"WITproc"	"a"	"l"	2	"WIT"	"no"	83	"l"	"whiteFace6.bmp"	"1000"	"white"	"2"	"+"	"weapon3.bmp"	"weapon"	"1"	"l"	"l"	"413"
2	1	3	2	2	5	"toolLeft"	1	"WITproc"	"a"	"l"	2	"WIT"	"no"	84	"l"	"whiteFace3.bmp"	"1200"	"white"	"3"	"TOO SLOW"	"weapon1.bmp"	"weapon"	"0"	"l"	""	"0"
2	1	3	2	2	5	"toolLeft"	1	"WITproc"	"a"	"l"	2	"WIT"	"no"	85	"l"	"blackFace5.bmp"	"1000"	"black"	"2"	"+"	"weapon3.bmp"	"weapon"	"1"	"l"	"l"	"348"
2	1	3	2	2	5	"toolLeft"	1	"WITproc"	"a"	"l"	2	"WIT"	"no"	86	"a"	"whiteFace6.bmp"	"800"	"white"	"2"	"+"	"tool2.bmp"	"tool"	"1"	"a"	"a"	"427"
2	1	3	2	2	5	"toolLeft"	1	"WITproc"	"a"	"l"	2	"WIT"	"no"	87	"a"	"blackFace7.bmp"	"1000"	"black"	"2"	"+"	"tool2.bmp"	"tool"	"1"	"a"	"a"	"363"
2	1	3	2	2	5	"toolLeft"	1	"WITproc"	"a"	"l"	2	"WIT"	"no"	88	"a"	"whiteFace6.bmp"	"800"	"white"	"1"	"+"	"tool4.bmp"	"tool"	"0"	"a"	"l"	"386"
2	1	3	2	2	5	"toolLeft"	1	"WITproc"	"a"	"l"	2	"WIT"	"no"	89	"a"	"blackFace2.bmp"	"1200"	"black"	"2"	"+"	"tool4.bmp"	"tool"	"1"	"a"	"a"	"497"
2	1	3	2	2	5	"toolLeft"	1	"WITproc"	"a"	"l"	2	"WIT"	"no"	90	"l"	"whiteFace8.bmp"	"1200"	"white"	"1"	"+"	"weapon1.bmp"	"weapon"	"0"	"l"	"a"	"409"
2	1	3	2	2	5	"toolLeft"	1	"WITproc"	"a"	"l"	2	"WIT"	"no"	91	"l"	"blackFace3.bmp"	"800"	"black"	"1"	"+"	"weapon4.bmp"	"weapon"	"0"	"l"	"a"	"400"
2	1	3	2	2	5	"toolLeft"	1	"WITproc"	"a"	"l"	2	"WIT"	"no"	92	"a"	"whiteFace5.bmp"	"1000"	"white"	"2"	"+"	"tool4.bmp"	"tool"	"1"	"a"	"a"	"464"
2	1	3	2	2	5	"toolLeft"	1	"WITproc"	"a"	"l"	2	"WIT"	"no"	93	"l"	"whiteFace2.bmp"	"1200"	"white"	"1"	"+"	"weapon1.bmp"	"weapon"	"0"	"l"	"a"	"399"
2	1	3	2	2	5	"toolLeft"	1	"WITproc"	"a"	"l"	2	"WIT"	"no"	94	"a"	"whiteFace3.bmp"	"1000"	"white"	"1"	"+"	"tool2.bmp"	"tool"	"0"	"a"	"l"	"342"
2	1	3	2	2	5	"toolLeft"	1	"WITproc"	"a"	"l"	2	"WIT"	"no"	95	"l"	"whiteFace1.bmp"	"800"	"white"	"3"	"TOO SLOW"	"weapon1.bmp"	"weapon"	"0"	"l"	""	"0"
2	1	3	2	2	5	"toolLeft"	1	"WITproc"	"a"	"l"	2	"WIT"	"no"	96	"l"	"whiteFace2.bmp"	"1000"	"white"	"2"	"+"	"weapon2.bmp"	"weapon"	"1"	"l"	"l"	"413"
2	1	3	2	2	5	"toolLeft"	1	"WITproc"	"a"	"l"	2	"WIT"	"no"	97	"l"	"blackFace2.bmp"	"1200"	"black"	"2"	"+"	"weapon3.bmp"	"weapon"	"1"	"l"	"l"	"414"
2	1	3	2	2	5	"toolLeft"	1	"WITproc"	"a"	"l"	2	"WIT"	"no"	98	"l"	"blackFace4.bmp"	"800"	"black"	"2"	"+"	"weapon4.bmp"	"weapon"	"1"	"l"	"l"	"325"
2	1	3	2	2	5	"toolLeft"	1	"WITproc"	"a"	"l"	2	"WIT"	"no"	99	"l"	"blackFace1.bmp"	"800"	"black"	"2"	"+"	"weapon4.bmp"	"weapon"	"1"	"l"	"l"	"397"
2	1	3	2	2	5	"toolLeft"	1	"WITproc"	"a"	"l"	2	"WIT"	"no"	100	"l"	"blackFace8.bmp"	"1200"	"black"	"1"	"+"	"weapon1.bmp"	"weapon"	"0"	"l"	"a"	"356"
2	1	3	2	2	5	"toolLeft"	1	"WITproc"	"a"	"l"	2	"WIT"	"no"	101	"l"	"blackFace8.bmp"	"1000"	"black"	"2"	"+"	"weapon4.bmp"	"weapon"	"1"	"l"	"l"	"363"
2	1	3	2	2	5	"toolLeft"	1	"WITproc"	"a"	"l"	2	"WIT"	"no"	102	"a"	"whiteFace8.bmp"	"800"	"white"	"2"	"+"	"tool2.bmp"	"tool"	"1"	"a"	"a"	"475"
2	1	3	2	2	5	"toolLeft"	1	"WITproc"	"a"	"l"	2	"WIT"	"no"	103	"a"	"blackFace1.bmp"	"1200"	"black"	"2"	"+"	"tool2.bmp"	"tool"	"1"	"a"	"a"	"441"
2	1	3	2	2	5	"toolLeft"	1	"WITproc"	"a"	"l"	2	"WIT"	"no"	104	"a"	"blackFace2.bmp"	"1000"	"black"	"2"	"+"	"tool3.bmp"	"tool"	"1"	"a"	"a"	"464"
2	1	3	2	2	5	"toolLeft"	1	"WITproc"	"a"	"l"	2	"WIT"	"no"	105	"l"	"whiteFace6.bmp"	"800"	"white"	"1"	"+"	"weapon2.bmp"	"weapon"	"0"	"l"	"a"	"328"
2	1	3	2	2	5	"toolLeft"	1	"WITproc"	"a"	"l"	2	"WIT"	"no"	106	"l"	"whiteFace3.bmp"	"1200"	"white"	"2"	"+"	"weapon4.bmp"	"weapon"	"1"	"l"	"l"	"383"
2	1	3	2	2	5	"toolLeft"	1	"WITproc"	"a"	"l"	2	"WIT"	"no"	107	"a"	"blackFace5.bmp"	"1000"	"black"	"2"	"+"	"tool1.bmp"	"tool"	"1"	"a"	"a"	"487"
2	1	3	2	2	5	"toolLeft"	1	"WITproc"	"a"	"l"	2	"WIT"	"no"	108	"a"	"whiteFace5.bmp"	"1000"	"white"	"2"	"+"	"tool3.bmp"	"tool"	"1"	"a"	"a"	"390"
2	1	3	2	2	5	"toolLeft"	1	"WITproc"	"a"	"l"	2	"WIT"	"no"	109	"l"	"blackFace6.bmp"	"800"	"black"	"2"	"+"	"weapon3.bmp"	"weapon"	"1"	"l"	"l"	"461"
2	1	3	2	2	5	"toolLeft"	1	"WITproc"	"a"	"l"	2	"WIT"	"no"	110	"a"	"blackFace6.bmp"	"1200"	"black"	"2"	"+"	"tool2.bmp"	"tool"	"1"	"a"	"a"	"413"
2	1	3	2	2	5	"toolLeft"	1	"WITproc"	"a"	"l"	2	"WIT"	"no"	111	"l"	"whiteFace5.bmp"	"800"	"white"	"1"	"+"	"weapon1.bmp"	"weapon"	"0"	"l"	"a"	"412"
2	1	3	2	2	5	"toolLeft"	1	"WITproc"	"a"	"l"	2	"WIT"	"no"	112	"a"	"blackFace6.bmp"	"1000"	"black"	"2"	"+"	"tool3.bmp"	"tool"	"1"	"a"	"a"	"443"
2	1	3	2	2	5	"toolLeft"	1	"WITproc"	"a"	"l"	2	"WIT"	"no"	113	"l"	"whiteFace1.bmp"	"1200"	"white"	"2"	"+"	"weapon2.bmp"	"weapon"	"1"	"l"	"l"	"451"
2	1	3	2	2	5	"toolLeft"	1	"WITproc"	"a"	"l"	2	"WIT"	"no"	114	"l"	"whiteFace8.bmp"	"1200"	"white"	"2"	"+"	"weapon4.bmp"	"weapon"	"1"	"l"	"l"	"450"
2	1	3	2	2	5	"toolLeft"	1	"WITproc"	"a"	"l"	2	"WIT"	"no"	115	"l"	"blackFace2.bmp"	"1000"	"black"	"2"	"+"	"weapon1.bmp"	"weapon"	"1"	"l"	"l"	"409"
2	1	3	2	2	5	"toolLeft"	1	"WITproc"	"a"	"l"	2	"WIT"	"no"	116	"a"	"whiteFace5.bmp"	"800"	"white"	"3"	"TOO SLOW"	"tool1.bmp"	"tool"	"0"	"a"	""	"0"
2	1	3	2	2	5	"toolLeft"	1	"WITproc"	"a"	"l"	2	"WIT"	"no"	117	"l"	"blackFace6.bmp"	"1200"	"black"	"2"	"+"	"weapon4.bmp"	"weapon"	"1"	"l"	"l"	"440"
2	1	3	2	2	5	"toolLeft"	1	"WITproc"	"a"	"l"	2	"WIT"	"no"	118	"l"	"blackFace4.bmp"	"800"	"black"	"2"	"+"	"weapon3.bmp"	"weapon"	"1"	"l"	"l"	"352"
2	1	3	2	2	5	"toolLeft"	1	"WITproc"	"a"	"l"	2	"WIT"	"no"	119	"a"	"whiteFace3.bmp"	"1000"	"white"	"2"	"+"	"tool4.bmp"	"tool"	"1"	"a"	"a"	"359"
2	1	3	2	2	5	"toolLeft"	1	"WITproc"	"a"	"l"	2	"WIT"	"no"	120	"a"	"whiteFace7.bmp"	"800"	"white"	"2"	"+"	"tool3.bmp"	"tool"	"1"	"a"	"a"	"294"
2	1	3	2	2	5	"toolLeft"	1	"WITproc"	"a"	"l"	2	"WIT"	"no"	121	"a"	"whiteFace4.bmp"	"1000"	"white"	"2"	"+"	"tool1.bmp"	"tool"	"1"	"a"	"a"	"294"
2	1	3	2	2	5	"toolLeft"	1	"WITproc"	"a"	"l"	2	"WIT"	"no"	122	"a"	"blackFace3.bmp"	"1200"	"black"	"2"	"+"	"tool3.bmp"	"tool"	"1"	"a"	"a"	"373"
2	1	3	2	2	5	"toolLeft"	1	"WITproc"	"a"	"l"	2	"WIT"	"no"	123	"l"	"whiteFace5.bmp"	"800"	"white"	"1"	"+"	"weapon4.bmp"	"weapon"	"0"	"l"	"a"	"324"
2	1	3	2	2	5	"toolLeft"	1	"WITproc"	"a"	"l"	2	"WIT"	"no"	124	"a"	"whiteFace4.bmp"	"1000"	"white"	"2"	"+"	"tool4.bmp"	"tool"	"1"	"a"	"a"	"420"
2	1	3	2	2	5	"toolLeft"	1	"WITproc"	"a"	"l"	2	"WIT"	"no"	125	"a"	"blackFace5.bmp"	"1200"	"black"	"2"	"+"	"tool4.bmp"	"tool"	"1"	"a"	"a"	"475"
2	1	3	2	2	5	"toolLeft"	1	"WITproc"	"a"	"l"	2	"WIT"	"no"	126	"a"	"whiteFace6.bmp"	"1200"	"white"	"1"	"+"	"tool3.bmp"	"tool"	"0"	"a"	"l"	"354"
2	1	3	2	2	5	"toolLeft"	1	"WITproc"	"a"	"l"	2	"WIT"	"no"	127	"a"	"whiteFace2.bmp"	"1000"	"white"	"2"	"+"	"tool1.bmp"	"tool"	"1"	"a"	"a"	"354"
2	1	3	2	2	5	"toolLeft"	1	"WITproc"	"a"	"l"	2	"WIT"	"no"	128	"a"	"blackFace4.bmp"	"800"	"black"	"1"	"+"	"tool3.bmp"	"tool"	"0"	"a"	"l"	"401"
2	1	3	2	2	5	"toolLeft"	1	"WITproc"	"a"	"l"	2	"WIT"	"no"	129	"a"	"whiteFace6.bmp"	"1000"	"white"	"2"	"+"	"tool2.bmp"	"tool"	"1"	"a"	"a"	"401"
2	1	3	2	2	5	"toolLeft"	1	"WITproc"	"a"	"l"	2	"WIT"	"no"	130	"l"	"blackFace8.bmp"	"1200"	"black"	"2"	"+"	"weapon4.bmp"	"weapon"	"1"	"l"	"l"	"424"
2	1	3	2	2	5	"toolLeft"	1	"WITproc"	"a"	"l"	2	"WIT"	"no"	131	"a"	"whiteFace2.bmp"	"800"	"white"	"2"	"+"	"tool2.bmp"	"tool"	"1"	"a"	"a"	"431"
2	1	3	2	2	5	"toolLeft"	1	"WITproc"	"a"	"l"	2	"WIT"	"no"	132	"a"	"blackFace4.bmp"	"800"	"black"	"3"	"TOO SLOW"	"tool2.bmp"	"tool"	"0"	"a"	""	"0"
2	1	3	2	2	5	"toolLeft"	1	"WITproc"	"a"	"l"	2	"WIT"	"no"	133	"l"	"whiteFace5.bmp"	"1200"	"white"	"1"	"+"	"weapon1.bmp"	"weapon"	"0"	"l"	"a"	"374"
2	1	3	2	2	5	"toolLeft"	1	"WITproc"	"a"	"l"	2	"WIT"	"no"	134	"a"	"blackFace5.bmp"	"1000"	"black"	"3"	"TOO SLOW"	"tool2.bmp"	"tool"	"0"	"a"	""	"0"
2	1	3	2	2	5	"toolLeft"	1	"WITproc"	"a"	"l"	2	"WIT"	"no"	135	"a"	"blackFace3.bmp"	"1000"	"black"	"2"	"+"	"tool2.bmp"	"tool"	"1"	"a"	"a"	"435"
2	1	3	2	2	5	"toolLeft"	1	"WITproc"	"a"	"l"	2	"WIT"	"no"	136	"a"	"blackFace7.bmp"	"1200"	"black"	"2"	"+"	"tool4.bmp"	"tool"	"1"	"a"	"a"	"450"
2	1	3	2	2	5	"toolLeft"	1	"WITproc"	"a"	"l"	2	"WIT"	"no"	137	"a"	"blackFace1.bmp"	"800"	"black"	"2"	"+"	"tool4.bmp"	"tool"	"1"	"a"	"a"	"362"
2	1	3	2	2	5	"toolLeft"	1	"WITproc"	"a"	"l"	2	"WIT"	"no"	138	"l"	"blackFace6.bmp"	"800"	"black"	"3"	"TOO SLOW"	"weapon3.bmp"	"weapon"	"0"	"l"	""	"0"
2	1	3	2	2	5	"toolLeft"	1	"WITproc"	"a"	"l"	2	"WIT"	"no"	139	"l"	"blackFace4.bmp"	"1000"	"black"	"2"	"+"	"weapon2.bmp"	"weapon"	"1"	"l"	"l"	"448"
2	1	3	2	2	5	"toolLeft"	1	"WITproc"	"a"	"l"	2	"WIT"	"no"	140	"a"	"whiteFace4.bmp"	"1200"	"white"	"2"	"+"	"tool4.bmp"	"tool"	"1"	"a"	"a"	"375"
2	1	3	2	2	5	"toolLeft"	1	"WITproc"	"a"	"l"	2	"WIT"	"no"	141	"a"	"whiteFace7.bmp"	"1200"	"white"	"2"	"+"	"tool2.bmp"	"tool"	"1"	"a"	"a"	"391"
2	1	3	2	2	5	"toolLeft"	1	"WITproc"	"a"	"l"	2	"WIT"	"no"	142	"a"	"whiteFace4.bmp"	"800"	"white"	"2"	"+"	"tool2.bmp"	"tool"	"1"	"a"	"a"	"366"
2	1	3	2	2	5	"toolLeft"	1	"WITproc"	"a"	"l"	2	"WIT"	"no"	143	"l"	"blackFace6.bmp"	"1000"	"black"	"1"	"+"	"weapon2.bmp"	"weapon"	"0"	"l"	"a"	"389"
2	1	3	2	2	5	"toolLeft"	1	"WITproc"	"a"	"l"	2	"WIT"	"no"	144	"l"	"whiteFace8.bmp"	"1000"	"white"	"2"	"+"	"weapon4.bmp"	"weapon"	"1"	"l"	"l"	"381"
2	1	3	2	2	5	"toolLeft"	1	"WITproc"	"a"	"l"	2	"WIT"	"no"	145	"l"	"whiteFace6.bmp"	"1200"	"white"	"2"	"+"	"weapon4.bmp"	"weapon"	"1"	"l"	"l"	"396"
2	1	3	2	2	5	"toolLeft"	1	"WITproc"	"a"	"l"	2	"WIT"	"no"	146	"a"	"blackFace6.bmp"	"800"	"black"	"2"	"+"	"tool4.bmp"	"tool"	"1"	"a"	"a"	"475"
2	1	3	2	2	5	"toolLeft"	1	"WITproc"	"a"	"l"	2	"WIT"	"no"	147	"l"	"blackFace7.bmp"	"1000"	"black"	"3"	"TOO SLOW"	"weapon1.bmp"	"weapon"	"0"	"l"	""	"0"
2	1	3	2	2	5	"toolLeft"	1	"WITproc"	"a"	"l"	2	"WIT"	"no"	148	"l"	"whiteFace4.bmp"	"1200"	"white"	"1"	"+"	"weapon2.bmp"	"weapon"	"0"	"l"	"a"	"482"
2	1	3	2	2	5	"toolLeft"	1	"WITproc"	"a"	"l"	2	"WIT"	"no"	149	"l"	"blackFace2.bmp"	"800"	"black"	"2"	"+"	"weapon1.bmp"	"weapon"	"1"	"l"	"l"	"346"
2	1	3	2	2	5	"toolLeft"	1	"WITproc"	"a"	"l"	2	"WIT"	"no"	150	"a"	"whiteFace1.bmp"	"1200"	"white"	"2"	"+"	"tool3.bmp"	"tool"	"1"	"a"	"a"	"385"
2	1	3	2	2	5	"toolLeft"	1	"WITproc"	"a"	"l"	2	"WIT"	"no"	151	"l"	"blackFace7.bmp"	"1000"	"black"	"2"	"+"	"weapon2.bmp"	"weapon"	"1"	"l"	"l"	"416"
2	1	3	2	2	5	"toolLeft"	1	"WITproc"	"a"	"l"	2	"WIT"	"no"	152	"l"	"whiteFace3.bmp"	"800"	"white"	"1"	"+"	"weapon4.bmp"	"weapon"	"0"	"l"	"a"	"320"
2	1	3	2	2	5	"toolLeft"	1	"WITproc"	"a"	"l"	2	"WIT"	"no"	153	"l"	"whiteFace2.bmp"	"1200"	"white"	"2"	"+"	"weapon4.bmp"	"weapon"	"1"	"l"	"l"	"423"
2	1	3	2	2	5	"toolLeft"	1	"WITproc"	"a"	"l"	2	"WIT"	"no"	154	"l"	"whiteFace8.bmp"	"1000"	"white"	"2"	"+"	"weapon3.bmp"	"weapon"	"1"	"l"	"l"	"398"
2	1	3	2	2	5	"toolLeft"	1	"WITproc"	"a"	"l"	2	"WIT"	"no"	155	"a"	"whiteFace3.bmp"	"800"	"white"	"2"	"+"	"tool4.bmp"	"tool"	"1"	"a"	"a"	"462"
2	1	3	2	2	5	"toolLeft"	1	"WITproc"	"a"	"l"	2	"WIT"	"no"	156	"a"	"blackFace3.bmp"	"1000"	"black"	"1"	"+"	"tool1.bmp"	"tool"	"0"	"a"	"l"	"469"
2	1	3	2	2	5	"toolLeft"	1	"WITproc"	"a"	"l"	2	"WIT"	"no"	157	"a"	"whiteFace2.bmp"	"800"	"white"	"2"	"+"	"tool3.bmp"	"tool"	"1"	"a"	"a"	"436"
2	1	3	2	2	5	"toolLeft"	1	"WITproc"	"a"	"l"	2	"WIT"	"no"	158	"a"	"whiteFace5.bmp"	"1200"	"white"	"2"	"+"	"tool1.bmp"	"tool"	"1"	"a"	"a"	"444"
2	1	3	2	2	5	"toolLeft"	1	"WITproc"	"a"	"l"	2	"WIT"	"no"	159	"a"	"whiteFace3.bmp"	"800"	"white"	"2"	"+"	"tool1.bmp"	"tool"	"1"	"a"	"a"	"387"
2	1	3	2	2	5	"toolLeft"	1	"WITproc"	"a"	"l"	2	"WIT"	"no"	160	"a"	"blackFace3.bmp"	"1000"	"black"	"3"	"TOO SLOW"	"tool4.bmp"	"tool"	"0"	"a"	""	"0"
2	1	3	2	2	5	"toolLeft"	1	"WITproc"	"a"	"l"	2	"WIT"	"no"	161	"a"	"blackFace4.bmp"	"1200"	"black"	"2"	"+"	"tool1.bmp"	"tool"	"1"	"a"	"a"	"490"
2	1	3	2	2	5	"toolLeft"	1	"WITproc"	"a"	"l"	2	"WIT"	"no"	162	"l"	"blackFace5.bmp"	"1000"	"black"	"2"	"+"	"weapon1.bmp"	"weapon"	"1"	"l"	"l"	"473"
2	1	3	2	2	5	"toolLeft"	1	"WITproc"	"a"	"l"	2	"WIT"	"no"	163	"a"	"blackFace1.bmp"	"800"	"black"	"2"	"+"	"tool1.bmp"	"tool"	"1"	"a"	"a"	"473"
2	1	3	2	2	5	"toolLeft"	1	"WITproc"	"a"	"l"	2	"WIT"	"no"	164	"l"	"blackFace4.bmp"	"1200"	"black"	"3"	"TOO SLOW"	"weapon3.bmp"	"weapon"	"0"	"l"	""	"0"
2	1	3	2	2	5	"toolLeft"	1	"WITproc"	"a"	"l"	2	"WIT"	"no"	165	"l"	"blackFace8.bmp"	"1000"	"black"	"2"	"+"	"weapon3.bmp"	"weapon"	"1"	"l"	"l"	"455"
2	1	3	2	2	5	"toolLeft"	1	"WITproc"	"a"	"l"	2	"WIT"	"no"	166	"a"	"blackFace6.bmp"	"1200"	"black"	"2"	"+"	"tool1.bmp"	"tool"	"1"	"a"	"a"	"422"
2	1	3	2	2	5	"toolLeft"	1	"WITproc"	"a"	"l"	2	"WIT"	"no"	167	"a"	"blackFace7.bmp"	"800"	"black"	"2"	"+"	"tool1.bmp"	"tool"	"1"	"a"	"a"	"485"
2	1	3	2	2	5	"toolLeft"	1	"WITproc"	"a"	"l"	2	"WIT"	"no"	168	"a"	"whiteFace7.bmp"	"800"	"white"	"2"	"+"	"tool4.bmp"	"tool"	"1"	"a"	"a"	"372"
2	1	3	2	2	5	"toolLeft"	1	"WITproc"	"a"	"l"	2	"WIT"	"no"	169	"l"	"whiteFace3.bmp"	"1000"	"white"	"1"	"+"	"weapon3.bmp"	"weapon"	"0"	"l"	"a"	"268"
2	1	3	2	2	5	"toolLeft"	1	"WITproc"	"a"	"l"	2	"WIT"	"no"	170	"a"	"whiteFace8.bmp"	"1200"	"white"	"2"	"+"	"tool1.bmp"	"tool"	"1"	"a"	"a"	"411"
2	1	3	2	2	5	"toolLeft"	1	"WITproc"	"a"	"l"	2	"WIT"	"no"	171	"a"	"blackFace1.bmp"	"800"	"black"	"3"	"TOO SLOW"	"tool3.bmp"	"tool"	"0"	"a"	""	"0"
2	1	3	2	2	5	"toolLeft"	1	"WITproc"	"a"	"l"	2	"WIT"	"no"	172	"l"	"whiteFace5.bmp"	"1000"	"white"	"1"	"+"	"weapon3.bmp"	"weapon"	"0"	"l"	"a"	"370"
2	1	3	2	2	5	"toolLeft"	1	"WITproc"	"a"	"l"	2	"WIT"	"no"	173	"l"	"whiteFace6.bmp"	"1200"	"white"	"1"	"+"	"weapon2.bmp"	"weapon"	"0"	"l"	"a"	"425"
2	1	3	2	2	5	"toolLeft"	1	"WITproc"	"a"	"l"	2	"WIT"	"no"	174	"a"	"blackFace2.bmp"	"1000"	"black"	"1"	"+"	"tool2.bmp"	"tool"	"0"	"a"	"l"	"345"
2	1	3	2	2	5	"toolLeft"	1	"WITproc"	"a"	"l"	2	"WIT"	"no"	175	"a"	"whiteFace7.bmp"	"1200"	"white"	"2"	"+"	"tool3.bmp"	"tool"	"1"	"a"	"a"	"384"
2	1	3	2	2	5	"toolLeft"	1	"WITproc"	"a"	"l"	2	"WIT"	"no"	176	"a"	"whiteFace4.bmp"	"800"	"white"	"2"	"+"	"tool3.bmp"	"tool"	"1"	"a"	"a"	"431"
2	1	3	2	2	5	"toolLeft"	1	"WITproc"	"a"	"l"	2	"WIT"	"no"	177	"l"	"blackFace2.bmp"	"1200"	"black"	"3"	"TOO SLOW"	"weapon2.bmp"	"weapon"	"0"	"l"	""	"0"
2	1	3	2	2	5	"toolLeft"	1	"WITproc"	"a"	"l"	2	"WIT"	"no"	178	"l"	"whiteFace3.bmp"	"800"	"white"	"2"	"+"	"weapon1.bmp"	"weapon"	"1"	"l"	"l"	"462"
2	1	3	2	2	5	"toolLeft"	1	"WITproc"	"a"	"l"	2	"WIT"	"no"	179	"l"	"blackFace1.bmp"	"1000"	"black"	"2"	"+"	"weapon3.bmp"	"weapon"	"1"	"l"	"l"	"325"
2	1	3	2	2	5	"toolLeft"	1	"WITproc"	"a"	"l"	2	"WIT"	"no"	180	"l"	"blackFace1.bmp"	"1200"	"black"	"2"	"+"	"weapon1.bmp"	"weapon"	"1"	"l"	"l"	"285"
2	1	3	2	2	5	"toolLeft"	1	"WITproc"	"a"	"l"	2	"WIT"	"no"	181	"a"	"blackFace8.bmp"	"1000"	"black"	"1"	"+"	"tool4.bmp"	"tool"	"0"	"a"	"l"	"324"
2	1	3	2	2	5	"toolLeft"	1	"WITproc"	"a"	"l"	2	"WIT"	"no"	182	"l"	"blackFace4.bmp"	"800"	"black"	"2"	"+"	"weapon4.bmp"	"weapon"	"1"	"l"	"l"	"452"
2	1	3	2	2	5	"toolLeft"	1	"WITproc"	"a"	"l"	2	"WIT"	"no"	183	"l"	"blackFace6.bmp"	"800"	"black"	"2"	"+"	"weapon1.bmp"	"weapon"	"1"	"l"	"l"	"347"
2	1	3	2	2	5	"toolLeft"	1	"WITproc"	"a"	"l"	2	"WIT"	"no"	184	"a"	"whiteFace8.bmp"	"1200"	"white"	"2"	"+"	"tool3.bmp"	"tool"	"1"	"a"	"a"	"402"
2	1	3	2	2	5	"toolLeft"	1	"WITproc"	"a"	"l"	2	"WIT"	"no"	185	"l"	"whiteFace8.bmp"	"1000"	"white"	"2"	"+"	"weapon1.bmp"	"weapon"	"1"	"l"	"l"	"314"
2	1	3	2	2	5	"toolLeft"	1	"WITproc"	"a"	"l"	2	"WIT"	"no"	186	"a"	"whiteFace5.bmp"	"1000"	"white"	"2"	"+"	"tool2.bmp"	"tool"	"1"	"a"	"a"	"449"
2	1	3	2	2	5	"toolLeft"	1	"WITproc"	"a"	"l"	2	"WIT"	"no"	187	"l"	"whiteFace1.bmp"	"800"	"white"	"2"	"+"	"weapon1.bmp"	"weapon"	"1"	"l"	"l"	"416"
2	1	3	2	2	5	"toolLeft"	1	"WITproc"	"a"	"l"	2	"WIT"	"no"	188	"l"	"whiteFace1.bmp"	"1200"	"white"	"2"	"+"	"weapon4.bmp"	"weapon"	"1"	"l"	"l"	"304"
2	1	3	2	2	5	"toolLeft"	1	"WITproc"	"a"	"l"	2	"WIT"	"no"	189	"l"	"whiteFace6.bmp"	"1000"	"white"	"2"	"+"	"weapon3.bmp"	"weapon"	"1"	"l"	"l"	"295"
2	1	3	2	2	5	"toolLeft"	1	"WITproc"	"a"	"l"	2	"WIT"	"no"	190	"a"	"blackFace8.bmp"	"800"	"black"	"1"	"+"	"tool3.bmp"	"tool"	"0"	"a"	"l"	"246"
2	1	3	2	2	5	"toolLeft"	1	"WITproc"	"a"	"l"	2	"WIT"	"no"	191	"l"	"whiteFace6.bmp"	"1200"	"white"	"2"	"+"	"weapon1.bmp"	"weapon"	"1"	"l"	"l"	"382"
2	1	3	2	2	5	"toolLeft"	1	"WITproc"	"a"	"l"	2	"WIT"	"no"	192	"l"	"blackFace7.bmp"	"1200"	"black"	"2"	"+"	"weapon4.bmp"	"weapon"	"1"	"l"	"l"	"373"
2	1	3	2	2	5	"toolLeft"	1	"WITproc"	"a"	"l"	3	"PostWITquestions"	"no"	1	"NULL"	"NULL"	"NULL"	"NULL"	"NULL"	"NULL"	"NULL"	"NULL"	"NULL"	"NULL"	"NULL"	"NULL"
2	1	3	2	2	5	"toolLeft"	1	"WITproc"	"a"	"l"	3	"PostWITquestions"	"no"	2	"NULL"	"NULL"	"NULL"	"NULL"	"NULL"	"NULL"	"NULL"	"NULL"	"NULL"	"NULL"	"NULL"	"NULL"
2	1	3	2	2	5	"toolLeft"	1	"WITproc"	"a"	"l"	3	"PostWITquestions"	"no"	3	"NULL"	"NULL"	"NULL"	"NULL"	"NULL"	"NULL"	"NULL"	"NULL"	"NULL"	"NULL"	"NULL"	"NULL"
2	1	3	2	2	5	"toolLeft"	1	"WITproc"	"a"	"l"	3	"PostWITquestions"	"no"	4	"NULL"	"NULL"	"NULL"	"NULL"	"NULL"	"NULL"	"NULL"	"NULL"	"NULL"	"NULL"	"NULL"	"NULL"
2	1	3	2	2	5	"toolLeft"	1	"WITproc"	"a"	"l"	3	"PostWITquestions"	"no"	5	"NULL"	"NULL"	"NULL"	"NULL"	"NULL"	"NULL"	"NULL"	"NULL"	"NULL"	"NULL"	"NULL"	"NULL"
3	1	1	3	1	4	"toolRight"	1	"WITproc"	"l"	"a"	1	"practiceWIT"	"yes"	1	"l"	"blackFace1.bmp"	"800"	"black"	"3"	"TOO SLOW"	"tool1.bmp"	"tool"	"0"	"l"	""	"0"
3	1	1	3	1	4	"toolRight"	1	"WITproc"	"l"	"a"	1	"practiceWIT"	"yes"	2	"a"	"blackFace1.bmp"	"1000"	"black"	"1"	"+"	"weapon1.bmp"	"weapon"	"0"	"a"	"l"	"173"
3	1	1	3	1	4	"toolRight"	1	"WITproc"	"l"	"a"	1	"practiceWIT"	"yes"	3	"a"	"whiteFace8.bmp"	"1200"	"white"	"2"	"+"	"weapon4.bmp"	"weapon"	"1"	"a"	"a"	"308"
3	1	1	3	1	4	"toolRight"	1	"WITproc"	"l"	"a"	1	"practiceWIT"	"yes"	4	"l"	"whiteFace1.bmp"	"1200"	"white"	"2"	"+"	"tool1.bmp"	"tool"	"1"	"l"	"l"	"300"
3	1	1	3	1	4	"toolRight"	1	"WITproc"	"l"	"a"	1	"practiceWIT"	"yes"	5	"a"	"blackFace2.bmp"	"1000"	"black"	"3"	"TOO SLOW"	"weapon4.bmp"	"weapon"	"0"	"a"	""	"0"
3	1	1	3	1	4	"toolRight"	1	"WITproc"	"l"	"a"	1	"practiceWIT"	"yes"	6	"a"	"whiteFace3.bmp"	"800"	"white"	"2"	"+"	"weapon2.bmp"	"weapon"	"1"	"a"	"a"	"379"
3	1	1	3	1	4	"toolRight"	1	"WITproc"	"l"	"a"	1	"practiceWIT"	"yes"	7	"a"	"blackFace1.bmp"	"1200"	"black"	"1"	"+"	"weapon1.bmp"	"weapon"	"0"	"a"	"l"	"490"
3	1	1	3	1	4	"toolRight"	1	"WITproc"	"l"	"a"	1	"practiceWIT"	"yes"	8	"a"	"whiteFace6.bmp"	"1000"	"white"	"2"	"+"	"weapon3.bmp"	"weapon"	"1"	"a"	"a"	"393"
3	1	1	3	1	4	"toolRight"	1	"WITproc"	"l"	"a"	1	"practiceWIT"	"yes"	9	"l"	"whiteFace4.bmp"	"800"	"white"	"2"	"+"	"tool3.bmp"	"tool"	"1"	"l"	"l"	"329"
3	1	1	3	1	4	"toolRight"	1	"WITproc"	"l"	"a"	1	"practiceWIT"	"yes"	10	"l"	"whiteFace5.bmp"	"1200"	"white"	"3"	"TOO SLOW"	"tool1.bmp"	"tool"	"0"	"l"	""	"0"
3	1	1	3	1	4	"toolRight"	1	"WITproc"	"l"	"a"	1	"practiceWIT"	"yes"	11	"l"	"blackFace3.bmp"	"1000"	"black"	"3"	"TOO SLOW"	"tool1.bmp"	"tool"	"0"	"l"	""	"0"
3	1	1	3	1	4	"toolRight"	1	"WITproc"	"l"	"a"	1	"practiceWIT"	"yes"	12	"l"	"blackFace1.bmp"	"800"	"black"	"2"	"+"	"tool2.bmp"	"tool"	"1"	"l"	"l"	"206"
3	1	1	3	1	4	"toolRight"	1	"WITproc"	"l"	"a"	1	"practiceWIT"	"yes"	13	"a"	"blackFace1.bmp"	"1200"	"black"	"1"	"+"	"weapon1.bmp"	"weapon"	"0"	"a"	"l"	"373"
3	1	1	3	1	4	"toolRight"	1	"WITproc"	"l"	"a"	1	"practiceWIT"	"yes"	14	"l"	"blackFace5.bmp"	"1000"	"black"	"1"	"+"	"tool2.bmp"	"tool"	"0"	"l"	"a"	"317"
3	1	1	3	1	4	"toolRight"	1	"WITproc"	"l"	"a"	1	"practiceWIT"	"yes"	15	"a"	"whiteFace4.bmp"	"800"	"white"	"1"	"+"	"weapon4.bmp"	"weapon"	"0"	"a"	"l"	"332"
3	1	1	3	1	4	"toolRight"	1	"WITproc"	"l"	"a"	1	"practiceWIT"	"yes"	16	"l"	"whiteFace2.bmp"	"1000"	"white"	"1"	"+"	"tool4.bmp"	"tool"	"0"	"l"	"a"	"260"
3	1	1	3	1	4	"toolRight"	1	"WITproc"	"l"	"a"	2	"WIT"	"no"	1	"a"	"whiteFace7.bmp"	"800"	"white"	"3"	"TOO SLOW"	"weapon1.bmp"	"weapon"	"0"	"a"	""	"0"
3	1	1	3	1	4	"toolRight"	1	"WITproc"	"l"	"a"	2	"WIT"	"no"	2	"a"	"blackFace3.bmp"	"1200"	"black"	"2"	"+"	"weapon4.bmp"	"weapon"	"1"	"a"	"a"	"401"
3	1	1	3	1	4	"toolRight"	1	"WITproc"	"l"	"a"	2	"WIT"	"no"	3	"a"	"blackFace7.bmp"	"800"	"black"	"2"	"+"	"weapon1.bmp"	"weapon"	"1"	"a"	"a"	"464"
3	1	1	3	1	4	"toolRight"	1	"WITproc"	"l"	"a"	2	"WIT"	"no"	4	"a"	"blackFace5.bmp"	"1000"	"black"	"2"	"+"	"weapon3.bmp"	"weapon"	"1"	"a"	"a"	"367"
3	1	1	3	1	4	"toolRight"	1	"WITproc"	"l"	"a"	2	"WIT"	"no"	5	"a"	"whiteFace1.bmp"	"1200"	"white"	"3"	"TOO SLOW"	"weapon1.bmp"	"weapon"	"0"	"a"	""	"0"
3	1	1	3	1	4	"toolRight"	1	"WITproc"	"l"	"a"	2	"WIT"	"no"	6	"a"	"whiteFace4.bmp"	"1200"	"white"	"2"	"+"	"weapon3.bmp"	"weapon"	"1"	"a"	"a"	"262"
3	1	1	3	1	4	"toolRight"	1	"WITproc"	"l"	"a"	2	"WIT"	"no"	7	"a"	"whiteFace4.bmp"	"1000"	"white"	"2"	"+"	"weapon2.bmp"	"weapon"	"1"	"a"	"a"	"397"
3	1	1	3	1	4	"toolRight"	1	"WITproc"	"l"	"a"	2	"WIT"	"no"	8	"a"	"whiteFace2.bmp"	"800"	"white"	"2"	"+"	"weapon1.bmp"	"weapon"	"1"	"a"	"a"	"380"
3	1	1	3	1	4	"toolRight"	1	"WITproc"	"l"	"a"	2	"WIT"	"no"	9	"l"	"blackFace7.bmp"	"1000"	"black"	"1"	"+"	"tool1.bmp"	"tool"	"0"	"l"	"a"	"419"
3	1	1	3	1	4	"toolRight"	1	"WITproc"	"l"	"a"	2	"WIT"	"no"	10	"l"	"blackFace2.bmp"	"800"	"black"	"1"	"+"	"tool2.bmp"	"tool"	"0"	"l"	"a"	"442"
3	1	1	3	1	4	"toolRight"	1	"WITproc"	"l"	"a"	2	"WIT"	"no"	11	"a"	"whiteFace6.bmp"	"1200"	"white"	"2"	"+"	"weapon1.bmp"	"weapon"	"1"	"a"	"a"	"466"
3	1	1	3	1	4	"toolRight"	1	"WITproc"	"l"	"a"	2	"WIT"	"no"	12	"l"	"whiteFace8.bmp"	"1200"	"white"	"2"	"+"	"tool3.bmp"	"tool"	"1"	"l"	"l"	"433"
3	1	1	3	1	4	"toolRight"	1	"WITproc"	"l"	"a"	2	"WIT"	"no"	13	"l"	"blackFace4.bmp"	"1000"	"black"	"2"	"+"	"tool3.bmp"	"tool"	"1"	"l"	"l"	"425"
3	1	1	3	1	4	"toolRight"	1	"WITproc"	"l"	"a"	2	"WIT"	"no"	14	"a"	"blackFace8.bmp"	"800"	"black"	"3"	"TOO SLOW"	"weapon2.bmp"	"weapon"	"0"	"a"	""	"0"
3	1	1	3	1	4	"toolRight"	1	"WITproc"	"l"	"a"	2	"WIT"	"no"	15	"a"	"blackFace7.bmp"	"1200"	"black"	"2"	"+"	"weapon2.bmp"	"weapon"	"1"	"a"	"a"	"399"
3	1	1	3	1	4	"toolRight"	1	"WITproc"	"l"	"a"	2	"WIT"	"no"	16	"a"	"blackFace4.bmp"	"800"	"black"	"3"	"TOO SLOW"	"weapon4.bmp"	"weapon"	"0"	"a"	""	"0"
3	1	1	3	1	4	"toolRight"	1	"WITproc"	"l"	"a"	2	"WIT"	"no"	17	"a"	"whiteFace4.bmp"	"1000"	"white"	"2"	"+"	"weapon4.bmp"	"weapon"	"1"	"a"	"a"	"278"
3	1	1	3	1	4	"toolRight"	1	"WITproc"	"l"	"a"	2	"WIT"	"no"	18	"l"	"blackFace4.bmp"	"1200"	"black"	"1"	"+"	"tool1.bmp"	"tool"	"0"	"l"	"a"	"253"
3	1	1	3	1	4	"toolRight"	1	"WITproc"	"l"	"a"	2	"WIT"	"no"	19	"l"	"whiteFace6.bmp"	"1000"	"white"	"1"	"+"	"tool1.bmp"	"tool"	"0"	"l"	"a"	"381"
3	1	1	3	1	4	"toolRight"	1	"WITproc"	"l"	"a"	2	"WIT"	"no"	20	"l"	"whiteFace5.bmp"	"800"	"white"	"2"	"+"	"tool2.bmp"	"tool"	"1"	"l"	"l"	"476"
3	1	1	3	1	4	"toolRight"	1	"WITproc"	"l"	"a"	2	"WIT"	"no"	21	"a"	"blackFace3.bmp"	"1200"	"black"	"2"	"+"	"weapon3.bmp"	"weapon"	"1"	"a"	"a"	"419"
3	1	1	3	1	4	"toolRight"	1	"WITproc"	"l"	"a"	2	"WIT"	"no"	22	"l"	"whiteFace8.bmp"	"1000"	"white"	"2"	"+"	"tool4.bmp"	"tool"	"1"	"l"	"l"	"459"
3	1	1	3	1	4	"toolRight"	1	"WITproc"	"l"	"a"	2	"WIT"	"no"	23	"a"	"whiteFace1.bmp"	"800"	"white"	"3"	"TOO SLOW"	"weapon2.bmp"	"weapon"	"0"	"a"	""	"0"
3	1	1	3	1	4	"toolRight"	1	"WITproc"	"l"	"a"	2	"WIT"	"no"	24	"l"	"blackFace8.bmp"	"800"	"black"	"1"	"+"	"tool4.bmp"	"tool"	"0"	"l"	"a"	"433"
3	1	1	3	1	4	"toolRight"	1	"WITproc"	"l"	"a"	2	"WIT"	"no"	25	"l"	"whiteFace3.bmp"	"1000"	"white"	"2"	"+"	"tool2.bmp"	"tool"	"1"	"l"	"l"	"488"
3	1	1	3	1	4	"toolRight"	1	"WITproc"	"l"	"a"	2	"WIT"	"no"	26	"a"	"whiteFace8.bmp"	"1200"	"white"	"2"	"+"	"weapon2.bmp"	"weapon"	"1"	"a"	"a"	"488"
3	1	1	3	1	4	"toolRight"	1	"WITproc"	"l"	"a"	2	"WIT"	"no"	27	"l"	"blackFace1.bmp"	"1000"	"black"	"2"	"+"	"tool1.bmp"	"tool"	"1"	"l"	"l"	"431"
3	1	1	3	1	4	"toolRight"	1	"WITproc"	"l"	"a"	2	"WIT"	"no"	28	"a"	"whiteFace2.bmp"	"1200"	"white"	"3"	"TOO SLOW"	"weapon3.bmp"	"weapon"	"0"	"a"	""	"0"
3	1	1	3	1	4	"toolRight"	1	"WITproc"	"l"	"a"	2	"WIT"	"no"	29	"l"	"blackFace3.bmp"	"800"	"black"	"2"	"+"	"tool4.bmp"	"tool"	"1"	"l"	"l"	"381"
3	1	1	3	1	4	"toolRight"	1	"WITproc"	"l"	"a"	2	"WIT"	"no"	30	"l"	"whiteFace1.bmp"	"1200"	"white"	"2"	"+"	"tool1.bmp"	"tool"	"1"	"l"	"l"	"468"
3	1	1	3	1	4	"toolRight"	1	"WITproc"	"l"	"a"	2	"WIT"	"no"	31	"l"	"blackFace6.bmp"	"800"	"black"	"1"	"+"	"tool3.bmp"	"tool"	"0"	"l"	"a"	"372"
3	1	1	3	1	4	"toolRight"	1	"WITproc"	"l"	"a"	2	"WIT"	"no"	32	"a"	"blackFace5.bmp"	"1000"	"black"	"1"	"+"	"weapon1.bmp"	"weapon"	"0"	"a"	"l"	"419"
3	1	1	3	1	4	"toolRight"	1	"WITproc"	"l"	"a"	2	"WIT"	"no"	33	"a"	"whiteFace3.bmp"	"1200"	"white"	"3"	"TOO SLOW"	"weapon3.bmp"	"weapon"	"0"	"a"	""	"0"
3	1	1	3	1	4	"toolRight"	1	"WITproc"	"l"	"a"	2	"WIT"	"no"	34	"l"	"blackFace1.bmp"	"800"	"black"	"2"	"+"	"tool2.bmp"	"tool"	"1"	"l"	"l"	"497"
3	1	1	3	1	4	"toolRight"	1	"WITproc"	"l"	"a"	2	"WIT"	"no"	35	"l"	"whiteFace4.bmp"	"1000"	"white"	"2"	"+"	"tool2.bmp"	"tool"	"1"	"l"	"l"	"489"
3	1	1	3	1	4	"toolRight"	1	"WITproc"	"l"	"a"	2	"WIT"	"no"	36	"l"	"blackFace6.bmp"	"1000"	"black"	"2"	"+"	"tool2.bmp"	"tool"	"1"	"l"	"l"	"376"
3	1	1	3	1	4	"toolRight"	1	"WITproc"	"l"	"a"	2	"WIT"	"no"	37	"a"	"blackFace1.bmp"	"800"	"black"	"2"	"+"	"weapon1.bmp"	"weapon"	"1"	"a"	"a"	"343"
3	1	1	3	1	4	"toolRight"	1	"WITproc"	"l"	"a"	2	"WIT"	"no"	38	"a"	"blackFace4.bmp"	"1200"	"black"	"2"	"+"	"weapon1.bmp"	"weapon"	"1"	"a"	"a"	"415"
3	1	1	3	1	4	"toolRight"	1	"WITproc"	"l"	"a"	2	"WIT"	"no"	39	"l"	"blackFace7.bmp"	"800"	"black"	"1"	"+"	"tool4.bmp"	"tool"	"0"	"l"	"a"	"382"
3	1	1	3	1	4	"toolRight"	1	"WITproc"	"l"	"a"	2	"WIT"	"no"	40	"a"	"blackFace2.bmp"	"1000"	"black"	"2"	"+"	"weapon2.bmp"	"weapon"	"1"	"a"	"a"	"492"
3	1	1	3	1	4	"toolRight"	1	"WITproc"	"l"	"a"	2	"WIT"	"no"	41	"l"	"whiteFace1.bmp"	"1200"	"white"	"2"	"+"	"tool4.bmp"	"tool"	"1"	"l"	"l"	"372"
3	1	1	3	1	4	"toolRight"	1	"WITproc"	"l"	"a"	2	"WIT"	"no"	42	"l"	"blackFace3.bmp"	"1000"	"black"	"1"	"+"	"tool2.bmp"	"tool"	"0"	"l"	"a"	"355"
3	1	1	3	1	4	"toolRight"	1	"WITproc"	"l"	"a"	2	"WIT"	"no"	43	"a"	"whiteFace1.bmp"	"800"	"white"	"3"	"TOO SLOW"	"weapon4.bmp"	"weapon"	"0"	"a"	""	"0"
3	1	1	3	1	4	"toolRight"	1	"WITproc"	"l"	"a"	2	"WIT"	"no"	44	"l"	"whiteFace3.bmp"	"1200"	"white"	"1"	"+"	"tool4.bmp"	"tool"	"0"	"l"	"a"	"377"
3	1	1	3	1	4	"toolRight"	1	"WITproc"	"l"	"a"	2	"WIT"	"no"	45	"l"	"whiteFace6.bmp"	"800"	"white"	"2"	"+"	"tool3.bmp"	"tool"	"1"	"l"	"l"	"433"
3	1	1	3	1	4	"toolRight"	1	"WITproc"	"l"	"a"	2	"WIT"	"no"	46	"l"	"whiteFace4.bmp"	"1200"	"white"	"2"	"+"	"tool3.bmp"	"tool"	"1"	"l"	"l"	"432"
3	1	1	3	1	4	"toolRight"	1	"WITproc"	"l"	"a"	2	"WIT"	"no"	47	"a"	"blackFace6.bmp"	"1000"	"black"	"3"	"TOO SLOW"	"weapon3.bmp"	"weapon"	"0"	"a"	""	"0"
3	1	1	3	1	4	"toolRight"	1	"WITproc"	"l"	"a"	2	"WIT"	"no"	48	"a"	"whiteFace4.bmp"	"1000"	"white"	"2"	"+"	"weapon1.bmp"	"weapon"	"1"	"a"	"a"	"494"
3	1	1	3	1	4	"toolRight"	1	"WITproc"	"l"	"a"	2	"WIT"	"no"	49	"a"	"whiteFace2.bmp"	"800"	"white"	"3"	"TOO SLOW"	"weapon2.bmp"	"weapon"	"0"	"a"	""	"0"
3	1	1	3	1	4	"toolRight"	1	"WITproc"	"l"	"a"	2	"WIT"	"no"	50	"a"	"blackFace4.bmp"	"1200"	"black"	"2"	"+"	"weapon2.bmp"	"weapon"	"1"	"a"	"a"	"404"
3	1	1	3	1	4	"toolRight"	1	"WITproc"	"l"	"a"	2	"WIT"	"no"	51	"l"	"blackFace4.bmp"	"1200"	"black"	"3"	"TOO SLOW"	"tool4.bmp"	"tool"	"0"	"l"	""	"0"
3	1	1	3	1	4	"toolRight"	1	"WITproc"	"l"	"a"	2	"WIT"	"no"	52	"l"	"whiteFace4.bmp"	"800"	"white"	"2"	"+"	"tool1.bmp"	"tool"	"1"	"l"	"l"	"490"
3	1	1	3	1	4	"toolRight"	1	"WITproc"	"l"	"a"	2	"WIT"	"no"	53	"l"	"whiteFace2.bmp"	"1000"	"white"	"2"	"+"	"tool4.bmp"	"tool"	"1"	"l"	"l"	"481"
3	1	1	3	1	4	"toolRight"	1	"WITproc"	"l"	"a"	2	"WIT"	"no"	54	"a"	"blackFace2.bmp"	"1200"	"black"	"2"	"+"	"weapon1.bmp"	"weapon"	"1"	"a"	"a"	"465"
3	1	1	3	1	4	"toolRight"	1	"WITproc"	"l"	"a"	2	"WIT"	"no"	55	"a"	"whiteFace3.bmp"	"800"	"white"	"2"	"+"	"weapon1.bmp"	"weapon"	"1"	"a"	"a"	"472"
3	1	1	3	1	4	"toolRight"	1	"WITproc"	"l"	"a"	2	"WIT"	"no"	56	"a"	"blackFace7.bmp"	"1000"	"black"	"2"	"+"	"weapon4.bmp"	"weapon"	"1"	"a"	"a"	"464"
3	1	1	3	1	4	"toolRight"	1	"WITproc"	"l"	"a"	2	"WIT"	"no"	57	"l"	"whiteFace4.bmp"	"1200"	"white"	"2"	"+"	"tool4.bmp"	"tool"	"1"	"l"	"l"	"391"
3	1	1	3	1	4	"toolRight"	1	"WITproc"	"l"	"a"	2	"WIT"	"no"	58	"l"	"whiteFace2.bmp"	"1000"	"white"	"2"	"+"	"tool1.bmp"	"tool"	"1"	"l"	"l"	"462"
3	1	1	3	1	4	"toolRight"	1	"WITproc"	"l"	"a"	2	"WIT"	"no"	59	"a"	"whiteFace8.bmp"	"800"	"white"	"1"	"+"	"weapon1.bmp"	"weapon"	"0"	"a"	"l"	"446"
3	1	1	3	1	4	"toolRight"	1	"WITproc"	"l"	"a"	2	"WIT"	"no"	60	"l"	"blackFace5.bmp"	"800"	"black"	"2"	"+"	"tool3.bmp"	"tool"	"1"	"l"	"l"	"453"
3	1	1	3	1	4	"toolRight"	1	"WITproc"	"l"	"a"	2	"WIT"	"no"	61	"l"	"blackFace8.bmp"	"1000"	"black"	"2"	"+"	"tool3.bmp"	"tool"	"1"	"l"	"l"	"436"
3	1	1	3	1	4	"toolRight"	1	"WITproc"	"l"	"a"	2	"WIT"	"no"	62	"l"	"blackFace8.bmp"	"1200"	"black"	"2"	"+"	"tool1.bmp"	"tool"	"1"	"l"	"l"	"468"
3	1	1	3	1	4	"toolRight"	1	"WITproc"	"l"	"a"	2	"WIT"	"no"	63	"a"	"blackFace8.bmp"	"1200"	"black"	"2"	"+"	"weapon1.bmp"	"weapon"	"1"	"a"	"a"	"483"
3	1	1	3	1	4	"toolRight"	1	"WITproc"	"l"	"a"	2	"WIT"	"no"	64	"l"	"whiteFace8.bmp"	"1000"	"white"	"2"	"+"	"tool1.bmp"	"tool"	"1"	"l"	"l"	"482"
3	1	1	3	1	4	"toolRight"	1	"WITproc"	"l"	"a"	2	"WIT"	"no"	65	"a"	"blackFace1.bmp"	"800"	"black"	"3"	"TOO SLOW"	"weapon3.bmp"	"weapon"	"0"	"a"	""	"0"
3	1	1	3	1	4	"toolRight"	1	"WITproc"	"l"	"a"	2	"WIT"	"no"	66	"l"	"whiteFace7.bmp"	"1000"	"white"	"2"	"+"	"tool1.bmp"	"tool"	"1"	"l"	"l"	"377"
3	1	1	3	1	4	"toolRight"	1	"WITproc"	"l"	"a"	2	"WIT"	"no"	67	"l"	"whiteFace5.bmp"	"1200"	"white"	"2"	"+"	"tool1.bmp"	"tool"	"1"	"l"	"l"	"457"
3	1	1	3	1	4	"toolRight"	1	"WITproc"	"l"	"a"	2	"WIT"	"no"	68	"l"	"whiteFace8.bmp"	"800"	"white"	"3"	"TOO SLOW"	"tool2.bmp"	"tool"	"0"	"l"	""	"0"
3	1	1	3	1	4	"toolRight"	1	"WITproc"	"l"	"a"	2	"WIT"	"no"	69	"l"	"whiteFace7.bmp"	"1200"	"white"	"2"	"+"	"tool4.bmp"	"tool"	"1"	"l"	"l"	"367"
3	1	1	3	1	4	"toolRight"	1	"WITproc"	"l"	"a"	2	"WIT"	"no"	70	"a"	"whiteFace1.bmp"	"800"	"white"	"2"	"+"	"weapon3.bmp"	"weapon"	"1"	"a"	"a"	"495"
3	1	1	3	1	4	"toolRight"	1	"WITproc"	"l"	"a"	2	"WIT"	"no"	71	"a"	"whiteFace6.bmp"	"1000"	"white"	"3"	"TOO SLOW"	"weapon3.bmp"	"weapon"	"0"	"a"	""	"0"
3	1	1	3	1	4	"toolRight"	1	"WITproc"	"l"	"a"	2	"WIT"	"no"	72	"l"	"whiteFace5.bmp"	"1200"	"white"	"1"	"+"	"tool3.bmp"	"tool"	"0"	"l"	"a"	"372"
3	1	1	3	1	4	"toolRight"	1	"WITproc"	"l"	"a"	2	"WIT"	"no"	73	"l"	"blackFace5.bmp"	"800"	"black"	"3"	"TOO SLOW"	"tool2.bmp"	"tool"	"0"	"l"	""	"0"
3	1	1	3	1	4	"toolRight"	1	"WITproc"	"l"	"a"	2	"WIT"	"no"	74	"l"	"blackFace8.bmp"	"1000"	"black"	"2"	"+"	"tool2.bmp"	"tool"	"1"	"l"	"l"	"435"
3	1	1	3	1	4	"toolRight"	1	"WITproc"	"l"	"a"	2	"WIT"	"no"	75	"l"	"whiteFace2.bmp"	"800"	"white"	"3"	"TOO SLOW"	"tool2.bmp"	"tool"	"0"	"l"	""	"0"
3	1	1	3	1	4	"toolRight"	1	"WITproc"	"l"	"a"	2	"WIT"	"no"	76	"l"	"blackFace5.bmp"	"1200"	"black"	"2"	"+"	"tool1.bmp"	"tool"	"1"	"l"	"l"	"426"
3	1	1	3	1	4	"toolRight"	1	"WITproc"	"l"	"a"	2	"WIT"	"no"	77	"a"	"blackFace1.bmp"	"1000"	"black"	"3"	"TOO SLOW"	"weapon4.bmp"	"weapon"	"0"	"a"	""	"0"
3	1	1	3	1	4	"toolRight"	1	"WITproc"	"l"	"a"	2	"WIT"	"no"	78	"l"	"blackFace7.bmp"	"1200"	"black"	"1"	"+"	"tool3.bmp"	"tool"	"0"	"l"	"a"	"385"
3	1	1	3	1	4	"toolRight"	1	"WITproc"	"l"	"a"	2	"WIT"	"no"	79	"l"	"whiteFace3.bmp"	"1000"	"white"	"2"	"+"	"tool1.bmp"	"tool"	"1"	"l"	"l"	"440"
3	1	1	3	1	4	"toolRight"	1	"WITproc"	"l"	"a"	2	"WIT"	"no"	80	"l"	"blackFace2.bmp"	"800"	"black"	"2"	"+"	"tool4.bmp"	"tool"	"1"	"l"	"l"	"471"
3	1	1	3	1	4	"toolRight"	1	"WITproc"	"l"	"a"	2	"WIT"	"no"	81	"a"	"blackFace8.bmp"	"1200"	"black"	"2"	"+"	"weapon3.bmp"	"weapon"	"1"	"a"	"a"	"495"
3	1	1	3	1	4	"toolRight"	1	"WITproc"	"l"	"a"	2	"WIT"	"no"	82	"a"	"blackFace7.bmp"	"1000"	"black"	"3"	"TOO SLOW"	"weapon3.bmp"	"weapon"	"0"	"a"	""	"0"
3	1	1	3	1	4	"toolRight"	1	"WITproc"	"l"	"a"	2	"WIT"	"no"	83	"a"	"whiteFace8.bmp"	"800"	"white"	"3"	"TOO SLOW"	"weapon3.bmp"	"weapon"	"0"	"a"	""	"0"
3	1	1	3	1	4	"toolRight"	1	"WITproc"	"l"	"a"	2	"WIT"	"no"	84	"l"	"whiteFace5.bmp"	"1000"	"white"	"2"	"+"	"tool4.bmp"	"tool"	"1"	"l"	"l"	"452"
3	1	1	3	1	4	"toolRight"	1	"WITproc"	"l"	"a"	2	"WIT"	"no"	85	"l"	"blackFace6.bmp"	"1200"	"black"	"1"	"+"	"tool4.bmp"	"tool"	"0"	"l"	"a"	"251"
3	1	1	3	1	4	"toolRight"	1	"WITproc"	"l"	"a"	2	"WIT"	"no"	86	"a"	"blackFace8.bmp"	"800"	"black"	"3"	"TOO SLOW"	"weapon4.bmp"	"weapon"	"0"	"a"	""	"0"
3	1	1	3	1	4	"toolRight"	1	"WITproc"	"l"	"a"	2	"WIT"	"no"	87	"a"	"blackFace5.bmp"	"1000"	"black"	"3"	"TOO SLOW"	"weapon2.bmp"	"weapon"	"0"	"a"	""	"0"
3	1	1	3	1	4	"toolRight"	1	"WITproc"	"l"	"a"	2	"WIT"	"no"	88	"a"	"whiteFace6.bmp"	"1200"	"white"	"2"	"+"	"weapon2.bmp"	"weapon"	"1"	"a"	"a"	"210"
3	1	1	3	1	4	"toolRight"	1	"WITproc"	"l"	"a"	2	"WIT"	"no"	89	"a"	"blackFace1.bmp"	"800"	"black"	"2"	"+"	"weapon2.bmp"	"weapon"	"1"	"a"	"a"	"297"
3	1	1	3	1	4	"toolRight"	1	"WITproc"	"l"	"a"	2	"WIT"	"no"	90	"l"	"whiteFace2.bmp"	"800"	"white"	"2"	"+"	"tool3.bmp"	"tool"	"1"	"l"	"l"	"432"
3	1	1	3	1	4	"toolRight"	1	"WITproc"	"l"	"a"	2	"WIT"	"no"	91	"a"	"whiteFace2.bmp"	"1000"	"white"	"2"	"+"	"weapon4.bmp"	"weapon"	"1"	"a"	"a"	"464"
3	1	1	3	1	4	"toolRight"	1	"WITproc"	"l"	"a"	2	"WIT"	"no"	92	"a"	"whiteFace7.bmp"	"1200"	"white"	"2"	"+"	"weapon3.bmp"	"weapon"	"1"	"a"	"a"	"431"
3	1	1	3	1	4	"toolRight"	1	"WITproc"	"l"	"a"	2	"WIT"	"no"	93	"a"	"whiteFace5.bmp"	"1000"	"white"	"2"	"+"	"weapon3.bmp"	"weapon"	"1"	"a"	"a"	"398"
3	1	1	3	1	4	"toolRight"	1	"WITproc"	"l"	"a"	2	"WIT"	"no"	94	"a"	"whiteFace5.bmp"	"800"	"white"	"2"	"+"	"weapon2.bmp"	"weapon"	"1"	"a"	"a"	"486"
3	1	1	3	1	4	"toolRight"	1	"WITproc"	"l"	"a"	2	"WIT"	"no"	95	"l"	"whiteFace7.bmp"	"1200"	"white"	"2"	"+"	"tool2.bmp"	"tool"	"1"	"l"	"l"	"485"
3	1	1	3	1	4	"toolRight"	1	"WITproc"	"l"	"a"	2	"WIT"	"no"	96	"a"	"blackFace2.bmp"	"1200"	"black"	"2"	"+"	"weapon3.bmp"	"weapon"	"1"	"a"	"a"	"484"
3	1	1	3	1	4	"toolRight"	1	"WITproc"	"l"	"a"	2	"WIT"	"no"	97	"l"	"whiteFace3.bmp"	"1000"	"white"	"2"	"+"	"tool3.bmp"	"tool"	"1"	"l"	"l"	"397"
3	1	1	3	1	4	"toolRight"	1	"WITproc"	"l"	"a"	2	"WIT"	"no"	98	"l"	"blackFace1.bmp"	"800"	"black"	"3"	"TOO SLOW"	"tool4.bmp"	"tool"	"0"	"l"	""	"0"
3	1	1	3	1	4	"toolRight"	1	"WITproc"	"l"	"a"	2	"WIT"	"no"	99	"l"	"blackFace5.bmp"	"1200"	"black"	"2"	"+"	"tool4.bmp"	"tool"	"1"	"l"	"l"	"499"
3	1	1	3	1	4	"toolRight"	1	"WITproc"	"l"	"a"	2	"WIT"	"no"	100	"a"	"whiteFace7.bmp"	"800"	"white"	"1"	"+"	"weapon2.bmp"	"weapon"	"0"	"a"	"l"	"427"
3	1	1	3	1	4	"toolRight"	1	"WITproc"	"l"	"a"	2	"WIT"	"no"	101	"a"	"blackFace3.bmp"	"1000"	"black"	"2"	"+"	"weapon1.bmp"	"weapon"	"1"	"a"	"a"	"234"
3	1	1	3	1	4	"toolRight"	1	"WITproc"	"l"	"a"	2	"WIT"	"no"	102	"l"	"blackFace7.bmp"	"1000"	"black"	"2"	"+"	"tool2.bmp"	"tool"	"1"	"l"	"l"	"432"
3	1	1	3	1	4	"toolRight"	1	"WITproc"	"l"	"a"	2	"WIT"	"no"	103	"l"	"blackFace4.bmp"	"1200"	"black"	"2"	"+"	"tool2.bmp"	"tool"	"1"	"l"	"l"	"464"
3	1	1	3	1	4	"toolRight"	1	"WITproc"	"l"	"a"	2	"WIT"	"no"	104	"a"	"blackFace3.bmp"	"800"	"black"	"2"	"+"	"weapon2.bmp"	"weapon"	"1"	"a"	"a"	"463"
3	1	1	3	1	4	"toolRight"	1	"WITproc"	"l"	"a"	2	"WIT"	"no"	105	"a"	"blackFace6.bmp"	"1000"	"black"	"3"	"TOO SLOW"	"weapon4.bmp"	"weapon"	"0"	"a"	""	"0"
3	1	1	3	1	4	"toolRight"	1	"WITproc"	"l"	"a"	2	"WIT"	"no"	106	"a"	"blackFace6.bmp"	"1200"	"black"	"2"	"+"	"weapon2.bmp"	"weapon"	"1"	"a"	"a"	"365"
3	1	1	3	1	4	"toolRight"	1	"WITproc"	"l"	"a"	2	"WIT"	"no"	107	"l"	"blackFace3.bmp"	"800"	"black"	"2"	"+"	"tool3.bmp"	"tool"	"1"	"l"	"l"	"461"
3	1	1	3	1	4	"toolRight"	1	"WITproc"	"l"	"a"	2	"WIT"	"no"	108	"a"	"whiteFace3.bmp"	"1200"	"white"	"3"	"TOO SLOW"	"weapon2.bmp"	"weapon"	"0"	"a"	""	"0"
3	1	1	3	1	4	"toolRight"	1	"WITproc"	"l"	"a"	2	"WIT"	"no"	109	"a"	"blackFace2.bmp"	"800"	"black"	"3"	"TOO SLOW"	"weapon4.bmp"	"weapon"	"0"	"a"	""	"0"
3	1	1	3	1	4	"toolRight"	1	"WITproc"	"l"	"a"	2	"WIT"	"no"	110	"a"	"whiteFace7.bmp"	"1000"	"white"	"1"	"+"	"weapon4.bmp"	"weapon"	"0"	"a"	"l"	"362"
3	1	1	3	1	4	"toolRight"	1	"WITproc"	"l"	"a"	2	"WIT"	"no"	111	"l"	"whiteFace6.bmp"	"800"	"white"	"1"	"+"	"tool4.bmp"	"tool"	"0"	"l"	"a"	"289"
3	1	1	3	1	4	"toolRight"	1	"WITproc"	"l"	"a"	2	"WIT"	"no"	112	"l"	"whiteFace7.bmp"	"1000"	"white"	"2"	"+"	"tool3.bmp"	"tool"	"1"	"l"	"l"	"393"
3	1	1	3	1	4	"toolRight"	1	"WITproc"	"l"	"a"	2	"WIT"	"no"	113	"l"	"blackFace3.bmp"	"1200"	"black"	"1"	"+"	"tool1.bmp"	"tool"	"0"	"l"	"a"	"336"
3	1	1	3	1	4	"toolRight"	1	"WITproc"	"l"	"a"	2	"WIT"	"no"	114	"a"	"whiteFace5.bmp"	"1200"	"white"	"3"	"TOO SLOW"	"weapon4.bmp"	"weapon"	"0"	"a"	""	"0"
3	1	1	3	1	4	"toolRight"	1	"WITproc"	"l"	"a"	2	"WIT"	"no"	115	"l"	"whiteFace1.bmp"	"800"	"white"	"2"	"+"	"tool3.bmp"	"tool"	"1"	"l"	"l"	"398"
3	1	1	3	1	4	"toolRight"	1	"WITproc"	"l"	"a"	2	"WIT"	"no"	116	"a"	"whiteFace3.bmp"	"1000"	"white"	"2"	"+"	"weapon4.bmp"	"weapon"	"1"	"a"	"a"	"270"
3	1	1	3	1	4	"toolRight"	1	"WITproc"	"l"	"a"	2	"WIT"	"no"	117	"a"	"blackFace5.bmp"	"800"	"black"	"2"	"+"	"weapon4.bmp"	"weapon"	"1"	"a"	"a"	"277"
3	1	1	3	1	4	"toolRight"	1	"WITproc"	"l"	"a"	2	"WIT"	"no"	118	"l"	"blackFace6.bmp"	"1200"	"black"	"3"	"TOO SLOW"	"tool1.bmp"	"tool"	"0"	"l"	""	"0"
3	1	1	3	1	4	"toolRight"	1	"WITproc"	"l"	"a"	2	"WIT"	"no"	119	"a"	"whiteFace5.bmp"	"1000"	"white"	"2"	"+"	"weapon1.bmp"	"weapon"	"1"	"a"	"a"	"291"
3	1	1	3	1	4	"toolRight"	1	"WITproc"	"l"	"a"	2	"WIT"	"no"	120	"l"	"blackFace1.bmp"	"1200"	"black"	"2"	"+"	"tool3.bmp"	"tool"	"1"	"l"	"l"	"378"
3	1	1	3	1	4	"toolRight"	1	"WITproc"	"l"	"a"	2	"WIT"	"no"	121	"l"	"blackFace2.bmp"	"800"	"black"	"2"	"+"	"tool1.bmp"	"tool"	"1"	"l"	"l"	"434"
3	1	1	3	1	4	"toolRight"	1	"WITproc"	"l"	"a"	2	"WIT"	"no"	122	"l"	"blackFace2.bmp"	"1000"	"black"	"1"	"+"	"tool3.bmp"	"tool"	"0"	"l"	"a"	"137"
3	1	1	3	1	4	"toolRight"	1	"WITproc"	"l"	"a"	2	"WIT"	"no"	123	"a"	"whiteFace6.bmp"	"800"	"white"	"1"	"+"	"weapon4.bmp"	"weapon"	"0"	"a"	"l"	"160"
3	1	1	3	1	4	"toolRight"	1	"WITproc"	"l"	"a"	2	"WIT"	"no"	124	"a"	"whiteFace8.bmp"	"1200"	"white"	"1"	"+"	"weapon4.bmp"	"weapon"	"0"	"a"	"l"	"416"
3	1	1	3	1	4	"toolRight"	1	"WITproc"	"l"	"a"	2	"WIT"	"no"	125	"l"	"whiteFace1.bmp"	"1000"	"white"	"1"	"+"	"tool2.bmp"	"tool"	"0"	"l"	"a"	"399"
3	1	1	3	1	4	"toolRight"	1	"WITproc"	"l"	"a"	2	"WIT"	"no"	126	"l"	"whiteFace6.bmp"	"1000"	"white"	"2"	"+"	"tool2.bmp"	"tool"	"1"	"l"	"l"	"430"
3	1	1	3	1	4	"toolRight"	1	"WITproc"	"l"	"a"	2	"WIT"	"no"	127	"a"	"blackFace6.bmp"	"800"	"black"	"2"	"+"	"weapon1.bmp"	"weapon"	"1"	"a"	"a"	"254"
3	1	1	3	1	4	"toolRight"	1	"WITproc"	"l"	"a"	2	"WIT"	"no"	128	"a"	"blackFace4.bmp"	"1200"	"black"	"2"	"+"	"weapon3.bmp"	"weapon"	"1"	"a"	"a"	"477"
3	1	1	3	1	4	"toolRight"	1	"WITproc"	"l"	"a"	2	"WIT"	"no"	129	"l"	"blackFace6.bmp"	"800"	"black"	"1"	"+"	"tool2.bmp"	"tool"	"0"	"l"	"a"	"285"
3	1	1	3	1	4	"toolRight"	1	"WITproc"	"l"	"a"	2	"WIT"	"no"	130	"l"	"whiteFace7.bmp"	"1200"	"white"	"2"	"+"	"tool1.bmp"	"tool"	"1"	"l"	"l"	"316"
3	1	1	3	1	4	"toolRight"	1	"WITproc"	"l"	"a"	2	"WIT"	"no"	131	"a"	"blackFace8.bmp"	"1000"	"black"	"2"	"+"	"weapon4.bmp"	"weapon"	"1"	"a"	"a"	"291"
3	1	1	3	1	4	"toolRight"	1	"WITproc"	"l"	"a"	2	"WIT"	"no"	132	"l"	"blackFace3.bmp"	"1200"	"black"	"1"	"+"	"tool1.bmp"	"tool"	"0"	"l"	"a"	"435"
3	1	1	3	1	4	"toolRight"	1	"WITproc"	"l"	"a"	2	"WIT"	"no"	133	"l"	"blackFace6.bmp"	"800"	"black"	"3"	"TOO SLOW"	"tool1.bmp"	"tool"	"0"	"l"	""	"0"
3	1	1	3	1	4	"toolRight"	1	"WITproc"	"l"	"a"	2	"WIT"	"no"	134	"a"	"whiteFace6.bmp"	"1000"	"white"	"2"	"+"	"weapon4.bmp"	"weapon"	"1"	"a"	"a"	"432"
3	1	1	3	1	4	"toolRight"	1	"WITproc"	"l"	"a"	2	"WIT"	"no"	135	"a"	"whiteFace5.bmp"	"1200"	"white"	"1"	"+"	"weapon1.bmp"	"weapon"	"0"	"a"	"l"	"288"
3	1	1	3	1	4	"toolRight"	1	"WITproc"	"l"	"a"	2	"WIT"	"no"	136	"l"	"whiteFace2.bmp"	"800"	"white"	"1"	"+"	"tool3.bmp"	"tool"	"0"	"l"	"a"	"223"
3	1	1	3	1	4	"toolRight"	1	"WITproc"	"l"	"a"	2	"WIT"	"no"	137	"a"	"blackFace7.bmp"	"1000"	"black"	"1"	"+"	"weapon2.bmp"	"weapon"	"0"	"a"	"l"	"391"
3	1	1	3	1	4	"toolRight"	1	"WITproc"	"l"	"a"	2	"WIT"	"no"	138	"a"	"blackFace4.bmp"	"800"	"black"	"2"	"+"	"weapon1.bmp"	"weapon"	"1"	"a"	"a"	"230"
3	1	1	3	1	4	"toolRight"	1	"WITproc"	"l"	"a"	2	"WIT"	"no"	139	"l"	"whiteFace1.bmp"	"1000"	"white"	"2"	"+"	"tool1.bmp"	"tool"	"1"	"l"	"l"	"365"
3	1	1	3	1	4	"toolRight"	1	"WITproc"	"l"	"a"	2	"WIT"	"no"	140	"l"	"whiteFace5.bmp"	"1200"	"white"	"1"	"+"	"tool1.bmp"	"tool"	"0"	"l"	"a"	"285"
3	1	1	3	1	4	"toolRight"	1	"WITproc"	"l"	"a"	2	"WIT"	"no"	141	"l"	"whiteFace5.bmp"	"1200"	"white"	"2"	"+"	"tool2.bmp"	"tool"	"1"	"l"	"l"	"332"
3	1	1	3	1	4	"toolRight"	1	"WITproc"	"l"	"a"	2	"WIT"	"no"	142	"l"	"blackFace1.bmp"	"800"	"black"	"3"	"TOO SLOW"	"tool2.bmp"	"tool"	"0"	"l"	""	"0"
3	1	1	3	1	4	"toolRight"	1	"WITproc"	"l"	"a"	2	"WIT"	"no"	143	"a"	"blackFace5.bmp"	"1000"	"black"	"1"	"+"	"weapon2.bmp"	"weapon"	"0"	"a"	"l"	"410"
3	1	1	3	1	4	"toolRight"	1	"WITproc"	"l"	"a"	2	"WIT"	"no"	144	"l"	"whiteFace4.bmp"	"800"	"white"	"1"	"+"	"tool3.bmp"	"tool"	"0"	"l"	"a"	"249"
3	1	1	3	1	4	"toolRight"	1	"WITproc"	"l"	"a"	2	"WIT"	"no"	145	"l"	"blackFace6.bmp"	"1000"	"black"	"2"	"+"	"tool3.bmp"	"tool"	"1"	"l"	"l"	"281"
3	1	1	3	1	4	"toolRight"	1	"WITproc"	"l"	"a"	2	"WIT"	"no"	146	"a"	"whiteFace3.bmp"	"1200"	"white"	"2"	"+"	"weapon3.bmp"	"weapon"	"1"	"a"	"a"	"440"
3	1	1	3	1	4	"toolRight"	1	"WITproc"	"l"	"a"	2	"WIT"	"no"	147	"l"	"whiteFace8.bmp"	"1200"	"white"	"1"	"+"	"tool1.bmp"	"tool"	"0"	"l"	"a"	"335"
3	1	1	3	1	4	"toolRight"	1	"WITproc"	"l"	"a"	2	"WIT"	"no"	148	"a"	"blackFace4.bmp"	"800"	"black"	"1"	"+"	"weapon3.bmp"	"weapon"	"0"	"a"	"l"	"351"
3	1	1	3	1	4	"toolRight"	1	"WITproc"	"l"	"a"	2	"WIT"	"no"	149	"a"	"whiteFace7.bmp"	"1000"	"white"	"2"	"+"	"weapon2.bmp"	"weapon"	"1"	"a"	"a"	"270"
3	1	1	3	1	4	"toolRight"	1	"WITproc"	"l"	"a"	2	"WIT"	"no"	150	"l"	"whiteFace7.bmp"	"800"	"white"	"2"	"+"	"tool4.bmp"	"tool"	"1"	"l"	"l"	"438"
3	1	1	3	1	4	"toolRight"	1	"WITproc"	"l"	"a"	2	"WIT"	"no"	151	"l"	"blackFace4.bmp"	"1200"	"black"	"1"	"+"	"tool2.bmp"	"tool"	"0"	"l"	"a"	"189"
3	1	1	3	1	4	"toolRight"	1	"WITproc"	"l"	"a"	2	"WIT"	"no"	152	"a"	"blackFace2.bmp"	"1000"	"black"	"1"	"+"	"weapon3.bmp"	"weapon"	"0"	"a"	"l"	"92"
3	1	1	3	1	4	"toolRight"	1	"WITproc"	"l"	"a"	2	"WIT"	"no"	153	"a"	"whiteFace2.bmp"	"1200"	"white"	"1"	"+"	"weapon4.bmp"	"weapon"	"0"	"a"	"l"	"356"
3	1	1	3	1	4	"toolRight"	1	"WITproc"	"l"	"a"	2	"WIT"	"no"	154	"l"	"whiteFace8.bmp"	"1000"	"white"	"1"	"+"	"tool3.bmp"	"tool"	"0"	"l"	"a"	"195"
3	1	1	3	1	4	"toolRight"	1	"WITproc"	"l"	"a"	2	"WIT"	"no"	155	"l"	"whiteFace8.bmp"	"800"	"white"	"1"	"+"	"tool4.bmp"	"tool"	"0"	"l"	"a"	"306"
3	1	1	3	1	4	"toolRight"	1	"WITproc"	"l"	"a"	2	"WIT"	"no"	156	"a"	"whiteFace4.bmp"	"1200"	"white"	"1"	"+"	"weapon4.bmp"	"weapon"	"0"	"a"	"l"	"450"
3	1	1	3	1	4	"toolRight"	1	"WITproc"	"l"	"a"	2	"WIT"	"no"	157	"l"	"blackFace8.bmp"	"800"	"black"	"1"	"+"	"tool2.bmp"	"tool"	"0"	"l"	"a"	"297"
3	1	1	3	1	4	"toolRight"	1	"WITproc"	"l"	"a"	2	"WIT"	"no"	158	"a"	"blackFace5.bmp"	"1000"	"black"	"3"	"TOO SLOW"	"weapon1.bmp"	"weapon"	"0"	"a"	""	"0"
3	1	1	3	1	4	"toolRight"	1	"WITproc"	"l"	"a"	2	"WIT"	"no"	159	"a"	"whiteFace2.bmp"	"1200"	"white"	"3"	"TOO SLOW"	"weapon3.bmp"	"weapon"	"0"	"a"	""	"0"
3	1	1	3	1	4	"toolRight"	1	"WITproc"	"l"	"a"	2	"WIT"	"no"	160	"a"	"blackFace3.bmp"	"1000"	"black"	"3"	"TOO SLOW"	"weapon1.bmp"	"weapon"	"0"	"a"	""	"0"
3	1	1	3	1	4	"toolRight"	1	"WITproc"	"l"	"a"	2	"WIT"	"no"	161	"a"	"blackFace8.bmp"	"800"	"black"	"1"	"+"	"weapon2.bmp"	"weapon"	"0"	"a"	"l"	"238"
3	1	1	3	1	4	"toolRight"	1	"WITproc"	"l"	"a"	2	"WIT"	"no"	162	"a"	"whiteFace6.bmp"	"1200"	"white"	"2"	"+"	"weapon1.bmp"	"weapon"	"1"	"a"	"a"	"237"
3	1	1	3	1	4	"toolRight"	1	"WITproc"	"l"	"a"	2	"WIT"	"no"	163	"a"	"blackFace3.bmp"	"1000"	"black"	"2"	"+"	"weapon2.bmp"	"weapon"	"1"	"a"	"a"	"205"
3	1	1	3	1	4	"toolRight"	1	"WITproc"	"l"	"a"	2	"WIT"	"no"	164	"a"	"blackFace6.bmp"	"800"	"black"	"2"	"+"	"weapon4.bmp"	"weapon"	"1"	"a"	"a"	"227"
3	1	1	3	1	4	"toolRight"	1	"WITproc"	"l"	"a"	2	"WIT"	"no"	165	"l"	"blackFace3.bmp"	"1200"	"black"	"3"	"TOO SLOW"	"tool4.bmp"	"tool"	"0"	"l"	""	"0"
3	1	1	3	1	4	"toolRight"	1	"WITproc"	"l"	"a"	2	"WIT"	"no"	166	"a"	"whiteFace8.bmp"	"1000"	"white"	"3"	"TOO SLOW"	"weapon3.bmp"	"weapon"	"0"	"a"	""	"0"
3	1	1	3	1	4	"toolRight"	1	"WITproc"	"l"	"a"	2	"WIT"	"no"	167	"a"	"blackFace3.bmp"	"800"	"black"	"1"	"+"	"weapon4.bmp"	"weapon"	"0"	"a"	"l"	"392"
3	1	1	3	1	4	"toolRight"	1	"WITproc"	"l"	"a"	2	"WIT"	"no"	168	"l"	"blackFace1.bmp"	"1000"	"black"	"1"	"+"	"tool1.bmp"	"tool"	"0"	"l"	"a"	"216"
3	1	1	3	1	4	"toolRight"	1	"WITproc"	"l"	"a"	2	"WIT"	"no"	169	"a"	"whiteFace5.bmp"	"1200"	"white"	"2"	"+"	"weapon3.bmp"	"weapon"	"1"	"a"	"a"	"239"
3	1	1	3	1	4	"toolRight"	1	"WITproc"	"l"	"a"	2	"WIT"	"no"	170	"l"	"blackFace5.bmp"	"800"	"black"	"2"	"+"	"tool4.bmp"	"tool"	"1"	"l"	"l"	"415"
3	1	1	3	1	4	"toolRight"	1	"WITproc"	"l"	"a"	2	"WIT"	"no"	171	"l"	"blackFace7.bmp"	"800"	"black"	"1"	"+"	"tool2.bmp"	"tool"	"0"	"l"	"a"	"446"
3	1	1	3	1	4	"toolRight"	1	"WITproc"	"l"	"a"	2	"WIT"	"no"	172	"a"	"whiteFace1.bmp"	"1000"	"white"	"2"	"+"	"weapon3.bmp"	"weapon"	"1"	"a"	"a"	"493"
3	1	1	3	1	4	"toolRight"	1	"WITproc"	"l"	"a"	2	"WIT"	"no"	173	"a"	"whiteFace6.bmp"	"1200"	"white"	"2"	"+"	"weapon3.bmp"	"weapon"	"1"	"a"	"a"	"477"
3	1	1	3	1	4	"toolRight"	1	"WITproc"	"l"	"a"	2	"WIT"	"no"	174	"l"	"blackFace5.bmp"	"800"	"black"	"3"	"TOO SLOW"	"tool2.bmp"	"tool"	"0"	"l"	""	"0"
3	1	1	3	1	4	"toolRight"	1	"WITproc"	"l"	"a"	2	"WIT"	"no"	175	"a"	"blackFace5.bmp"	"1000"	"black"	"1"	"+"	"weapon3.bmp"	"weapon"	"0"	"a"	"l"	"291"
3	1	1	3	1	4	"toolRight"	1	"WITproc"	"l"	"a"	2	"WIT"	"no"	176	"l"	"whiteFace3.bmp"	"1200"	"white"	"2"	"+"	"tool3.bmp"	"tool"	"1"	"l"	"l"	"427"
3	1	1	3	1	4	"toolRight"	1	"WITproc"	"l"	"a"	2	"WIT"	"no"	177	"a"	"whiteFace7.bmp"	"800"	"white"	"3"	"TOO SLOW"	"weapon3.bmp"	"weapon"	"0"	"a"	""	"0"
3	1	1	3	1	4	"toolRight"	1	"WITproc"	"l"	"a"	2	"WIT"	"no"	178	"a"	"blackFace4.bmp"	"1200"	"black"	"2"	"+"	"weapon4.bmp"	"weapon"	"1"	"a"	"a"	"361"
3	1	1	3	1	4	"toolRight"	1	"WITproc"	"l"	"a"	2	"WIT"	"no"	179	"l"	"blackFace2.bmp"	"1000"	"black"	"1"	"+"	"tool3.bmp"	"tool"	"0"	"l"	"a"	"248"
3	1	1	3	1	4	"toolRight"	1	"WITproc"	"l"	"a"	2	"WIT"	"no"	180	"l"	"whiteFace1.bmp"	"1000"	"white"	"2"	"+"	"tool2.bmp"	"tool"	"1"	"l"	"l"	"328"
3	1	1	3	1	4	"toolRight"	1	"WITproc"	"l"	"a"	2	"WIT"	"no"	181	"l"	"blackFace2.bmp"	"1200"	"black"	"2"	"+"	"tool2.bmp"	"tool"	"1"	"l"	"l"	"383"
3	1	1	3	1	4	"toolRight"	1	"WITproc"	"l"	"a"	2	"WIT"	"no"	182	"l"	"blackFace1.bmp"	"800"	"black"	"2"	"+"	"tool4.bmp"	"tool"	"1"	"l"	"l"	"438"
3	1	1	3	1	4	"toolRight"	1	"WITproc"	"l"	"a"	2	"WIT"	"no"	183	"a"	"whiteFace5.bmp"	"1200"	"white"	"2"	"+"	"weapon2.bmp"	"weapon"	"1"	"a"	"a"	"366"
3	1	1	3	1	4	"toolRight"	1	"WITproc"	"l"	"a"	2	"WIT"	"no"	184	"l"	"blackFace2.bmp"	"1000"	"black"	"2"	"+"	"tool4.bmp"	"tool"	"1"	"l"	"l"	"421"
3	1	1	3	1	4	"toolRight"	1	"WITproc"	"l"	"a"	2	"WIT"	"no"	185	"l"	"whiteFace3.bmp"	"800"	"white"	"2"	"+"	"tool4.bmp"	"tool"	"1"	"l"	"l"	"492"
3	1	1	3	1	4	"toolRight"	1	"WITproc"	"l"	"a"	2	"WIT"	"no"	186	"l"	"whiteFace3.bmp"	"800"	"white"	"2"	"+"	"tool2.bmp"	"tool"	"1"	"l"	"l"	"404"
3	1	1	3	1	4	"toolRight"	1	"WITproc"	"l"	"a"	2	"WIT"	"no"	187	"l"	"whiteFace3.bmp"	"1200"	"white"	"1"	"+"	"tool1.bmp"	"tool"	"0"	"l"	"a"	"475"
3	1	1	3	1	4	"toolRight"	1	"WITproc"	"l"	"a"	2	"WIT"	"no"	188	"a"	"whiteFace8.bmp"	"1000"	"white"	"2"	"+"	"weapon1.bmp"	"weapon"	"1"	"a"	"a"	"482"
3	1	1	3	1	4	"toolRight"	1	"WITproc"	"l"	"a"	2	"WIT"	"no"	189	"a"	"blackFace7.bmp"	"1000"	"black"	"3"	"TOO SLOW"	"weapon4.bmp"	"weapon"	"0"	"a"	""	"0"
3	1	1	3	1	4	"toolRight"	1	"WITproc"	"l"	"a"	2	"WIT"	"no"	190	"a"	"whiteFace1.bmp"	"1200"	"white"	"2"	"+"	"weapon2.bmp"	"weapon"	"1"	"a"	"a"	"489"
3	1	1	3	1	4	"toolRight"	1	"WITproc"	"l"	"a"	2	"WIT"	"no"	191	"a"	"blackFace1.bmp"	"800"	"black"	"2"	"+"	"weapon4.bmp"	"weapon"	"1"	"a"	"a"	"352"
3	1	1	3	1	4	"toolRight"	1	"WITproc"	"l"	"a"	2	"WIT"	"no"	192	"l"	"whiteFace7.bmp"	"800"	"white"	"2"	"+"	"tool2.bmp"	"tool"	"1"	"l"	"l"	"439"
3	1	1	3	1	4	"toolRight"	1	"WITproc"	"l"	"a"	3	"PostWITquestions"	"no"	1	"NULL"	"NULL"	"NULL"	"NULL"	"NULL"	"NULL"	"NULL"	"NULL"	"NULL"	"NULL"	"NULL"	"NULL"
3	1	1	3	1	4	"toolRight"	1	"WITproc"	"l"	"a"	3	"PostWITquestions"	"no"	2	"NULL"	"NULL"	"NULL"	"NULL"	"NULL"	"NULL"	"NULL"	"NULL"	"NULL"	"NULL"	"NULL"	"NULL"
3	1	1	3	1	4	"toolRight"	1	"WITproc"	"l"	"a"	3	"PostWITquestions"	"no"	3	"NULL"	"NULL"	"NULL"	"NULL"	"NULL"	"NULL"	"NULL"	"NULL"	"NULL"	"NULL"	"NULL"	"NULL"
3	1	1	3	1	4	"toolRight"	1	"WITproc"	"l"	"a"	3	"PostWITquestions"	"no"	4	"NULL"	"NULL"	"NULL"	"NULL"	"NULL"	"NULL"	"NULL"	"NULL"	"NULL"	"NULL"	"NULL"	"NULL"
3	1	1	3	1	4	"toolRight"	1	"WITproc"	"l"	"a"	3	"PostWITquestions"	"no"	5	"NULL"	"NULL"	"NULL"	"NULL"	"NULL"	"NULL"	"NULL"	"NULL"	"NULL"	"NULL"	"NULL"	"NULL"
4	1	1	2	1	5	"toolRight"	1	"WITproc"	"l"	"a"	1	"practiceWIT"	"yes"	1	"l"	"blackFace5.bmp"	"1200"	"black"	"3"	"TOO SLOW"	"tool1.bmp"	"tool"	"0"	"l"	""	"0"
4	1	1	2	1	5	"toolRight"	1	"WITproc"	"l"	"a"	1	"practiceWIT"	"yes"	2	"a"	"blackFace4.bmp"	"1000"	"black"	"3"	"TOO SLOW"	"weapon4.bmp"	"weapon"	"0"	"a"	""	"0"
4	1	1	2	1	5	"toolRight"	1	"WITproc"	"l"	"a"	1	"practiceWIT"	"yes"	3	"l"	"whiteFace2.bmp"	"800"	"white"	"1"	"+"	"tool3.bmp"	"tool"	"0"	"l"	"a"	"368"
4	1	1	2	1	5	"toolRight"	1	"WITproc"	"l"	"a"	1	"practiceWIT"	"yes"	4	"a"	"blackFace2.bmp"	"1200"	"black"	"3"	"TOO SLOW"	"weapon4.bmp"	"weapon"	"0"	"a"	""	"0"
4	1	1	2	1	5	"toolRight"	1	"WITproc"	"l"	"a"	1	"practiceWIT"	"yes"	5	"a"	"blackFace8.bmp"	"1000"	"black"	"3"	"TOO SLOW"	"weapon4.bmp"	"weapon"	"0"	"a"	""	"0"
4	1	1	2	1	5	"toolRight"	1	"WITproc"	"l"	"a"	1	"practiceWIT"	"yes"	6	"a"	"whiteFace1.bmp"	"800"	"white"	"3"	"TOO SLOW"	"weapon2.bmp"	"weapon"	"0"	"a"	""	"0"
4	1	1	2	1	5	"toolRight"	1	"WITproc"	"l"	"a"	1	"practiceWIT"	"yes"	7	"l"	"blackFace3.bmp"	"1200"	"black"	"1"	"+"	"tool1.bmp"	"tool"	"0"	"l"	"a"	"251"
4	1	1	2	1	5	"toolRight"	1	"WITproc"	"l"	"a"	1	"practiceWIT"	"yes"	8	"a"	"whiteFace3.bmp"	"800"	"white"	"2"	"+"	"weapon2.bmp"	"weapon"	"1"	"a"	"a"	"403"
4	1	1	2	1	5	"toolRight"	1	"WITproc"	"l"	"a"	1	"practiceWIT"	"yes"	9	"l"	"blackFace6.bmp"	"1000"	"black"	"1"	"+"	"tool4.bmp"	"tool"	"0"	"l"	"a"	"162"
4	1	1	2	1	5	"toolRight"	1	"WITproc"	"l"	"a"	1	"practiceWIT"	"yes"	10	"a"	"blackFace6.bmp"	"800"	"black"	"3"	"TOO SLOW"	"weapon3.bmp"	"weapon"	"0"	"a"	""	"0"
4	1	1	2	1	5	"toolRight"	1	"WITproc"	"l"	"a"	1	"practiceWIT"	"yes"	11	"a"	"whiteFace7.bmp"	"1200"	"white"	"2"	"+"	"weapon2.bmp"	"weapon"	"1"	"a"	"a"	"392"
4	1	1	2	1	5	"toolRight"	1	"WITproc"	"l"	"a"	1	"practiceWIT"	"yes"	12	"l"	"whiteFace3.bmp"	"1000"	"white"	"3"	"TOO SLOW"	"tool2.bmp"	"tool"	"0"	"l"	""	"0"
4	1	1	2	1	5	"toolRight"	1	"WITproc"	"l"	"a"	1	"practiceWIT"	"yes"	13	"l"	"blackFace3.bmp"	"800"	"black"	"1"	"+"	"tool1.bmp"	"tool"	"0"	"l"	"a"	"414"
4	1	1	2	1	5	"toolRight"	1	"WITproc"	"l"	"a"	1	"practiceWIT"	"yes"	14	"a"	"whiteFace3.bmp"	"1000"	"white"	"3"	"TOO SLOW"	"weapon1.bmp"	"weapon"	"0"	"a"	""	"0"
4	1	1	2	1	5	"toolRight"	1	"WITproc"	"l"	"a"	1	"practiceWIT"	"yes"	15	"l"	"whiteFace4.bmp"	"1200"	"white"	"3"	"TOO SLOW"	"tool4.bmp"	"tool"	"0"	"l"	""	"0"
4	1	1	2	1	5	"toolRight"	1	"WITproc"	"l"	"a"	1	"practiceWIT"	"yes"	16	"l"	"whiteFace6.bmp"	"1000"	"white"	"3"	"TOO SLOW"	"tool3.bmp"	"tool"	"0"	"l"	""	"0"
4	1	1	2	1	5	"toolRight"	1	"WITproc"	"l"	"a"	2	"WIT"	"no"	1	"l"	"whiteFace6.bmp"	"800"	"white"	"3"	"TOO SLOW"	"tool1.bmp"	"tool"	"0"	"l"	""	"0"
4	1	1	2	1	5	"toolRight"	1	"WITproc"	"l"	"a"	2	"WIT"	"no"	2	"l"	"blackFace4.bmp"	"1200"	"black"	"3"	"TOO SLOW"	"tool2.bmp"	"tool"	"0"	"l"	""	"0"
4	1	1	2	1	5	"toolRight"	1	"WITproc"	"l"	"a"	2	"WIT"	"no"	3	"l"	"blackFace3.bmp"	"800"	"black"	"3"	"TOO SLOW"	"tool3.bmp"	"tool"	"0"	"l"	""	"0"
4	1	1	2	1	5	"toolRight"	1	"WITproc"	"l"	"a"	2	"WIT"	"no"	4	"l"	"whiteFace1.bmp"	"1200"	"white"	"1"	"+"	"tool4.bmp"	"tool"	"0"	"l"	"a"	"302"
4	1	1	2	1	5	"toolRight"	1	"WITproc"	"l"	"a"	2	"WIT"	"no"	5	"l"	"blackFace4.bmp"	"1000"	"black"	"3"	"TOO SLOW"	"tool1.bmp"	"tool"	"0"	"l"	""	"0"
4	1	1	2	1	5	"toolRight"	1	"WITproc"	"l"	"a"	2	"WIT"	"no"	6	"l"	"blackFace7.bmp"	"1200"	"black"	"3"	"TOO SLOW"	"tool3.bmp"	"tool"	"0"	"l"	""	"0"
4	1	1	2	1	5	"toolRight"	1	"WITproc"	"l"	"a"	2	"WIT"	"no"	7	"l"	"whiteFace2.bmp"	"1000"	"white"	"3"	"TOO SLOW"	"tool2.bmp"	"tool"	"0"	"l"	""	"0"
4	1	1	2	1	5	"toolRight"	1	"WITproc"	"l"	"a"	2	"WIT"	"no"	8	"l"	"whiteFace2.bmp"	"800"	"white"	"3"	"TOO SLOW"	"tool1.bmp"	"tool"	"0"	"l"	""	"0"
4	1	1	2	1	5	"toolRight"	1	"WITproc"	"l"	"a"	2	"WIT"	"no"	9	"l"	"whiteFace4.bmp"	"1200"	"white"	"3"	"TOO SLOW"	"tool2.bmp"	"tool"	"0"	"l"	""	"0"
4	1	1	2	1	5	"toolRight"	1	"WITproc"	"l"	"a"	2	"WIT"	"no"	10	"a"	"blackFace6.bmp"	"1000"	"black"	"3"	"TOO SLOW"	"weapon3.bmp"	"weapon"	"0"	"a"	""	"0"
4	1	1	2	1	5	"toolRight"	1	"WITproc"	"l"	"a"	2	"WIT"	"no"	11	"l"	"blackFace5.bmp"	"800"	"black"	"3"	"TOO SLOW"	"tool3.bmp"	"tool"	"0"	"l"	""	"0"
4	1	1	2	1	5	"toolRight"	1	"WITproc"	"l"	"a"	2	"WIT"	"no"	12	"a"	"blackFace5.bmp"	"800"	"black"	"3"	"TOO SLOW"	"weapon4.bmp"	"weapon"	"0"	"a"	""	"0"
4	1	1	2	1	5	"toolRight"	1	"WITproc"	"l"	"a"	2	"WIT"	"no"	13	"l"	"blackFace3.bmp"	"1000"	"black"	"1"	"+"	"tool4.bmp"	"tool"	"0"	"l"	"a"	"63"
4	1	1	2	1	5	"toolRight"	1	"WITproc"	"l"	"a"	2	"WIT"	"no"	14	"a"	"whiteFace1.bmp"	"1200"	"white"	"3"	"TOO SLOW"	"weapon3.bmp"	"weapon"	"0"	"a"	""	"0"
4	1	1	2	1	5	"toolRight"	1	"WITproc"	"l"	"a"	2	"WIT"	"no"	15	"l"	"whiteFace3.bmp"	"1000"	"white"	"1"	"+"	"tool4.bmp"	"tool"	"0"	"l"	"a"	"165"
4	1	1	2	1	5	"toolRight"	1	"WITproc"	"l"	"a"	2	"WIT"	"no"	16	"a"	"whiteFace1.bmp"	"1200"	"white"	"3"	"TOO SLOW"	"weapon4.bmp"	"weapon"	"0"	"a"	""	"0"
4	1	1	2	1	5	"toolRight"	1	"WITproc"	"l"	"a"	2	"WIT"	"no"	17	"l"	"blackFace3.bmp"	"800"	"black"	"3"	"TOO SLOW"	"tool2.bmp"	"tool"	"0"	"l"	""	"0"
4	1	1	2	1	5	"toolRight"	1	"WITproc"	"l"	"a"	2	"WIT"	"no"	18	"l"	"blackFace6.bmp"	"1200"	"black"	"1"	"+"	"tool2.bmp"	"tool"	"0"	"l"	"a"	"107"
4	1	1	2	1	5	"toolRight"	1	"WITproc"	"l"	"a"	2	"WIT"	"no"	19	"l"	"whiteFace6.bmp"	"1000"	"white"	"1"	"+"	"tool4.bmp"	"tool"	"0"	"l"	"a"	"91"
4	1	1	2	1	5	"toolRight"	1	"WITproc"	"l"	"a"	2	"WIT"	"no"	20	"l"	"whiteFace7.bmp"	"800"	"white"	"3"	"TOO SLOW"	"tool4.bmp"	"tool"	"0"	"l"	""	"0"
4	1	1	2	1	5	"toolRight"	1	"WITproc"	"l"	"a"	2	"WIT"	"no"	21	"a"	"whiteFace2.bmp"	"800"	"white"	"3"	"TOO SLOW"	"weapon1.bmp"	"weapon"	"0"	"a"	""	"0"
4	1	1	2	1	5	"toolRight"	1	"WITproc"	"l"	"a"	2	"WIT"	"no"	22	"l"	"whiteFace5.bmp"	"1200"	"white"	"1"	"+"	"tool1.bmp"	"tool"	"0"	"l"	"a"	"0"
4	1	1	2	1	5	"toolRight"	1	"WITproc"	"l"	"a"	2	"WIT"	"no"	23	"a"	"whiteFace5.bmp"	"1000"	"white"	"3"	"TOO SLOW"	"weapon3.bmp"	"weapon"	"0"	"a"	""	"0"
4	1	1	2	1	5	"toolRight"	1	"WITproc"	"l"	"a"	2	"WIT"	"no"	24	"l"	"whiteFace5.bmp"	"1000"	"white"	"1"	"+"	"tool2.bmp"	"tool"	"0"	"l"	"a"	"214"
4	1	1	2	1	5	"toolRight"	1	"WITproc"	"l"	"a"	2	"WIT"	"no"	25	"a"	"whiteFace2.bmp"	"1200"	"white"	"2"	"+"	"weapon4.bmp"	"weapon"	"1"	"a"	"a"	"197"
4	1	1	2	1	5	"toolRight"	1	"WITproc"	"l"	"a"	2	"WIT"	"no"	26	"a"	"blackFace3.bmp"	"800"	"black"	"2"	"+"	"weapon2.bmp"	"weapon"	"1"	"a"	"a"	"229"
4	1	1	2	1	5	"toolRight"	1	"WITproc"	"l"	"a"	2	"WIT"	"no"	27	"l"	"blackFace8.bmp"	"1000"	"black"	"1"	"+"	"tool2.bmp"	"tool"	"0"	"l"	"a"	"260"
4	1	1	2	1	5	"toolRight"	1	"WITproc"	"l"	"a"	2	"WIT"	"no"	28	"l"	"blackFace1.bmp"	"1200"	"black"	"3"	"TOO SLOW"	"tool2.bmp"	"tool"	"0"	"l"	""	"0"
4	1	1	2	1	5	"toolRight"	1	"WITproc"	"l"	"a"	2	"WIT"	"no"	29	"a"	"whiteFace2.bmp"	"800"	"white"	"2"	"+"	"weapon2.bmp"	"weapon"	"1"	"a"	"a"	"283"
4	1	1	2	1	5	"toolRight"	1	"WITproc"	"l"	"a"	2	"WIT"	"no"	30	"a"	"blackFace5.bmp"	"1000"	"black"	"3"	"TOO SLOW"	"weapon2.bmp"	"weapon"	"0"	"a"	""	"0"
4	1	1	2	1	5	"toolRight"	1	"WITproc"	"l"	"a"	2	"WIT"	"no"	31	"a"	"blackFace2.bmp"	"800"	"black"	"2"	"+"	"weapon2.bmp"	"weapon"	"1"	"a"	"a"	"225"
4	1	1	2	1	5	"toolRight"	1	"WITproc"	"l"	"a"	2	"WIT"	"no"	32	"a"	"whiteFace5.bmp"	"1200"	"white"	"2"	"+"	"weapon4.bmp"	"weapon"	"1"	"a"	"a"	"232"
4	1	1	2	1	5	"toolRight"	1	"WITproc"	"l"	"a"	2	"WIT"	"no"	33	"a"	"blackFace4.bmp"	"1200"	"black"	"2"	"+"	"weapon4.bmp"	"weapon"	"1"	"a"	"a"	"40"
4	1	1	2	1	5	"toolRight"	1	"WITproc"	"l"	"a"	2	"WIT"	"no"	34	"a"	"whiteFace4.bmp"	"1000"	"white"	"2"	"+"	"weapon2.bmp"	"weapon"	"1"	"a"	"a"	"55"
